emotion,emotion_label,heart_rate,hrv,skin_conductance,movement,respiratory_rate,temperature,acceleration_x,acceleration_y,acceleration_z,ambient_light,blood_oxygen,timestamp,sequence_index,sequence_id
calm,0,84.003,43.129,0.243,0.147,10.49,36.88,-0.101,0.026,9.839,0.83,96.7,2025-07-16T18:08:58.557233,0,0
calm,0,71.815,58.411,0.282,0.106,17.13,36.61,0.01,-0.033,9.754,0.829,97.5,2025-07-16T18:08:59.557233,1,0
calm,0,85.0,39.672,0.332,0.004,15.401,36.8,0.006,0.002,9.803,0.364,97.1,2025-07-16T18:09:00.557233,2,0
calm,0,77.634,59.561,0.257,0.119,10.829,36.63,-0.047,0.001,9.829,0.577,96.9,2025-07-16T18:09:01.557233,3,0
calm,0,71.991,41.786,0.245,0.036,14.06,36.61,0.041,0.035,9.77,0.432,97.2,2025-07-16T18:09:02.557233,4,0
calm,0,71.707,45.277,0.311,0.092,13.671,36.58,-0.066,0.101,9.765,0.335,97.6,2025-07-16T18:09:03.557233,5,0
calm,0,63.546,53.86,0.287,0.06,10.231,36.53,-0.017,0.079,9.794,0.735,98.1,2025-07-16T18:09:04.557233,6,0
calm,0,66.305,47.171,0.302,0.175,15.792,36.56,0.148,-0.28,9.75,0.968,97.6,2025-07-16T18:09:05.557233,7,0
calm,0,56.156,30.417,0.423,0.087,10.171,36.54,0.139,0.096,9.787,0.11,97.8,2025-07-16T18:09:06.557233,8,0
calm,0,69.779,42.127,0.27,0.068,12.348,36.71,0.058,0.008,9.777,0.251,97.0,2025-07-16T18:09:07.557233,9,0
calm,0,64.614,54.922,0.235,0.096,15.621,36.56,-0.009,-0.04,9.793,0.236,97.4,2025-07-16T18:09:08.557233,10,0
calm,0,75.034,47.948,0.28,0.114,13.661,36.69,-0.269,-0.025,9.8,0.172,96.6,2025-07-16T18:09:09.557233,11,0
calm,0,59.976,37.91,0.202,0.108,15.705,36.47,-0.213,0.101,9.751,0.629,97.7,2025-07-16T18:09:10.557233,12,0
calm,0,57.693,46.736,0.299,0.139,16.149,36.42,0.003,-0.224,9.811,0.284,98.0,2025-07-16T18:09:11.557233,13,0
calm,0,82.173,38.937,0.23,0.108,16.125,36.72,-0.178,-0.078,9.756,0.526,97.0,2025-07-16T18:09:12.557233,14,0
calm,0,67.821,44.451,0.339,0.132,13.642,36.72,-0.187,-0.001,9.779,0.583,97.4,2025-07-16T18:09:13.557233,15,0
calm,0,83.135,57.168,0.263,0.167,13.841,36.73,-0.209,-0.069,9.804,0.323,95.9,2025-07-16T18:09:14.557233,16,0
calm,0,77.05,42.731,0.272,0.0,17.526,36.75,0.0,0.0,9.8,0.504,97.2,2025-07-16T18:09:15.557233,17,0
calm,0,63.397,39.278,0.261,0.073,11.945,36.54,-0.001,-0.029,9.771,0.976,97.1,2025-07-16T18:09:16.557233,18,0
calm,0,67.318,35.059,0.207,0.151,14.715,36.56,0.326,-0.163,9.845,0.386,97.1,2025-07-16T18:09:17.557233,19,0
calm,0,71.585,36.777,0.437,0.05,10.229,36.56,0.127,0.069,9.775,0.193,97.1,2025-07-16T18:09:18.557233,20,0
calm,0,55.0,38.556,0.272,0.133,10.231,36.52,-0.03,0.229,9.731,0.423,98.2,2025-07-16T18:09:19.557233,21,0
calm,0,65.995,30.559,0.15,0.11,14.833,36.52,-0.057,0.097,9.727,0.463,96.9,2025-07-16T18:09:20.557233,22,0
calm,0,67.302,60.526,0.276,0.09,12.917,36.52,0.037,-0.066,9.804,0.498,96.9,2025-07-16T18:09:21.557233,23,0
calm,0,61.16,40.163,0.303,0.133,17.143,36.72,-0.116,-0.075,9.758,0.543,97.3,2025-07-16T18:09:22.557233,24,0
calm,0,57.469,57.384,0.254,0.045,14.263,36.38,0.034,0.044,9.794,0.596,96.8,2025-07-16T18:09:23.557233,25,0
calm,0,82.772,42.964,0.154,0.096,16.326,36.93,0.181,-0.014,9.804,0.16,96.6,2025-07-16T18:09:24.557233,26,0
calm,0,75.098,53.322,0.33,0.127,13.6,36.6,-0.088,0.037,9.77,0.991,95.8,2025-07-16T18:09:25.557233,27,0
calm,0,75.425,50.982,0.251,0.082,16.204,36.85,0.042,0.122,9.844,0.861,97.5,2025-07-16T18:09:26.557233,28,0
calm,0,67.848,65.0,0.295,0.032,10.472,36.53,0.042,-0.055,9.813,0.617,97.1,2025-07-16T18:09:27.557233,29,0
calm,0,65.347,64.882,0.306,0.095,12.876,36.63,0.168,-0.036,9.826,0.246,97.2,2025-07-16T18:09:28.557233,30,0
calm,0,71.419,42.991,0.214,0.148,16.237,36.46,-0.092,0.091,9.865,0.289,97.2,2025-07-16T18:09:29.557233,31,0
calm,0,76.107,36.878,0.243,0.152,12.623,36.65,0.054,0.039,9.74,0.985,96.6,2025-07-16T18:09:30.557233,32,0
calm,0,65.379,33.725,0.205,0.134,16.95,36.4,0.154,-0.206,9.741,0.101,96.6,2025-07-16T18:09:31.557233,33,0
calm,0,67.457,65.0,0.271,0.113,15.315,36.53,0.042,-0.085,9.83,0.755,97.0,2025-07-16T18:09:32.557233,34,0
calm,0,75.728,39.857,0.213,0.136,15.447,36.76,-0.175,-0.205,9.813,0.869,97.2,2025-07-16T18:09:33.557233,35,0
calm,0,74.803,30.0,0.259,0.133,13.967,36.7,0.146,0.196,9.81,0.58,96.4,2025-07-16T18:09:34.557233,36,0
calm,0,64.113,33.48,0.299,0.161,12.644,36.58,0.029,0.146,9.812,0.857,97.1,2025-07-16T18:09:35.557233,37,0
calm,0,75.73,45.557,0.35,0.129,16.991,36.63,0.237,-0.064,9.872,0.457,96.5,2025-07-16T18:09:36.557233,38,0
calm,0,78.436,53.612,0.207,0.066,10.232,36.63,-0.065,-0.112,9.827,0.276,96.4,2025-07-16T18:09:37.557233,39,0
calm,0,79.428,47.389,0.292,0.173,16.263,36.68,-0.173,-0.022,9.712,0.649,96.6,2025-07-16T18:09:38.557233,40,0
calm,0,59.794,45.382,0.152,0.0,13.769,36.29,0.0,0.0,9.8,0.555,97.5,2025-07-16T18:09:39.557233,41,0
calm,0,67.981,48.272,0.378,0.133,15.267,36.49,-0.265,-0.1,9.75,0.22,97.0,2025-07-16T18:09:40.557233,42,0
calm,0,68.534,34.972,0.296,0.089,14.987,36.61,-0.012,-0.038,9.875,0.563,96.8,2025-07-16T18:09:41.557233,43,0
calm,0,75.207,43.536,0.278,0.062,14.376,36.76,0.043,0.035,9.836,0.824,97.5,2025-07-16T18:09:42.557233,44,0
calm,0,72.873,47.227,0.251,0.066,15.115,36.61,-0.056,0.146,9.798,0.49,97.8,2025-07-16T18:09:43.557233,45,0
calm,0,68.65,40.764,0.151,0.052,15.087,36.64,-0.059,0.029,9.769,0.244,97.7,2025-07-16T18:09:44.557233,46,0
calm,0,59.984,41.618,0.15,0.171,14.455,36.45,0.148,-0.033,9.64,0.38,97.2,2025-07-16T18:09:45.557233,47,0
calm,0,63.579,41.972,0.244,0.055,17.318,36.61,-0.039,-0.066,9.78,0.709,97.5,2025-07-16T18:09:46.557233,48,0
calm,0,77.532,37.312,0.351,0.013,12.435,36.58,0.016,-0.021,9.799,0.524,95.6,2025-07-16T18:09:47.557233,49,0
calm,0,64.086,50.844,0.26,0.148,15.46,36.52,-0.277,0.087,9.885,0.395,97.9,2025-07-16T18:09:48.557233,50,0
calm,0,72.521,30.585,0.371,0.14,14.165,36.54,0.096,-0.135,9.737,0.172,95.8,2025-07-16T18:09:49.557233,51,0
calm,0,66.952,42.323,0.28,0.22,15.651,36.69,0.169,-0.204,9.925,0.647,97.2,2025-07-16T18:09:50.557233,52,0
calm,0,62.535,49.382,0.242,0.0,15.334,36.3,0.0,0.0,9.8,0.377,97.3,2025-07-16T18:09:51.557233,53,0
calm,0,67.692,48.821,0.319,0.108,16.945,36.76,-0.19,-0.022,9.758,0.764,97.2,2025-07-16T18:09:52.557233,54,0
calm,0,79.244,58.622,0.468,0.149,11.571,36.61,-0.019,0.019,9.739,0.652,95.4,2025-07-16T18:09:53.557233,55,0
calm,0,75.987,58.149,0.324,0.147,11.804,36.66,-0.006,0.09,9.69,0.943,96.6,2025-07-16T18:09:54.557233,56,0
calm,0,75.198,53.888,0.345,0.052,14.698,36.63,-0.007,-0.044,9.788,0.532,97.0,2025-07-16T18:09:55.557233,57,0
calm,0,85.0,35.895,0.266,0.061,11.525,36.7,-0.067,0.067,9.792,0.142,96.1,2025-07-16T18:09:56.557233,58,0
calm,0,65.238,30.934,0.332,0.151,11.505,36.61,0.028,0.192,9.664,0.58,96.2,2025-07-16T18:09:57.557233,59,0
calm,0,75.474,30.0,0.389,0.133,11.678,36.71,-0.103,-0.239,9.745,0.365,96.7,2025-07-16T18:09:58.557233,60,0
calm,0,58.558,30.0,0.333,0.063,14.778,36.52,-0.05,0.03,9.805,0.916,97.5,2025-07-16T18:09:59.557233,61,0
calm,0,82.633,38.289,0.349,0.048,13.266,36.41,0.005,0.063,9.774,0.944,97.4,2025-07-16T18:10:00.557233,62,0
calm,0,64.156,40.282,0.24,0.142,12.761,36.48,0.054,0.091,9.79,0.857,97.4,2025-07-16T18:10:01.557233,63,0
calm,0,83.775,52.981,0.255,0.12,10.468,36.76,0.06,-0.03,9.762,0.984,96.7,2025-07-16T18:10:02.557233,64,0
calm,0,74.856,48.578,0.499,0.0,10.0,36.53,0.0,0.0,9.8,0.835,96.3,2025-07-16T18:10:03.557233,65,0
calm,0,76.909,35.148,0.325,0.125,13.134,36.49,0.071,0.169,9.781,0.896,97.4,2025-07-16T18:10:04.557233,66,0
calm,0,60.77,30.0,0.447,0.049,16.436,36.27,0.03,-0.031,9.797,0.131,96.3,2025-07-16T18:10:05.557233,67,0
calm,0,76.071,57.632,0.35,0.098,12.541,36.72,-0.118,-0.012,9.759,0.934,97.0,2025-07-16T18:10:06.557233,68,0
calm,0,75.019,34.828,0.357,0.125,13.473,36.55,-0.033,-0.07,9.771,0.355,97.8,2025-07-16T18:10:07.557233,69,0
calm,0,77.1,49.101,0.218,0.026,13.16,36.56,0.023,0.023,9.794,0.761,96.1,2025-07-16T18:10:08.557233,70,0
calm,0,58.704,42.978,0.197,0.096,14.405,36.38,0.046,-0.042,9.741,0.97,96.9,2025-07-16T18:10:09.557233,71,0
calm,0,72.55,64.522,0.239,0.085,17.779,36.4,-0.009,-0.042,9.747,0.402,97.5,2025-07-16T18:10:10.557233,72,0
calm,0,85.0,33.147,0.428,0.198,13.73,36.87,-0.19,0.121,9.852,0.763,96.9,2025-07-16T18:10:11.557233,73,0
calm,0,61.659,49.105,0.238,0.0,15.466,36.3,0.0,0.0,9.8,0.658,96.7,2025-07-16T18:10:12.557233,74,0
calm,0,62.455,43.837,0.15,0.07,13.103,36.59,-0.094,-0.035,9.761,0.523,97.7,2025-07-16T18:10:13.557233,75,0
calm,0,68.417,52.549,0.242,0.17,14.257,36.5,0.087,0.047,9.693,0.47,97.3,2025-07-16T18:10:14.557233,76,0
calm,0,71.415,56.465,0.224,0.137,17.916,36.61,0.074,-0.048,9.853,0.31,97.3,2025-07-16T18:10:15.557233,77,0
calm,0,63.681,33.106,0.346,0.088,14.562,36.42,0.061,-0.047,9.814,0.174,97.8,2025-07-16T18:10:16.557233,78,0
calm,0,67.256,48.196,0.36,0.109,12.155,36.61,-0.075,-0.013,9.776,0.339,96.7,2025-07-16T18:10:17.557233,79,0
calm,0,63.99,36.92,0.264,0.077,15.635,36.33,0.076,-0.056,9.794,0.313,96.8,2025-07-16T18:10:18.557233,80,0
calm,0,72.776,41.897,0.324,0.113,13.261,36.66,0.029,0.115,9.909,0.102,97.7,2025-07-16T18:10:19.557233,81,0
calm,0,55.0,55.157,0.349,0.125,14.615,36.49,0.12,-0.117,9.726,0.145,97.9,2025-07-16T18:10:20.557233,82,0
calm,0,69.398,38.656,0.15,0.132,17.283,36.57,-0.088,0.115,9.913,0.717,96.7,2025-07-16T18:10:21.557233,83,0
calm,0,62.625,45.317,0.327,0.201,13.493,36.49,-0.088,-0.046,9.818,0.734,97.3,2025-07-16T18:10:22.557233,84,0
calm,0,65.838,37.526,0.365,0.068,13.156,36.62,0.037,-0.025,9.788,0.523,97.8,2025-07-16T18:10:23.557233,85,0
calm,0,58.824,36.67,0.309,0.151,10.516,36.62,0.002,-0.302,9.677,0.656,97.5,2025-07-16T18:10:24.557233,86,0
calm,0,64.087,43.993,0.346,0.12,12.142,36.5,0.006,-0.123,9.868,0.701,96.7,2025-07-16T18:10:25.557233,87,0
calm,0,62.337,30.011,0.321,0.19,10.996,36.64,0.448,0.439,9.616,0.285,97.3,2025-07-16T18:10:26.557233,88,0
calm,0,71.462,58.897,0.27,0.0,11.481,36.64,0.0,0.0,9.8,0.649,96.9,2025-07-16T18:10:27.557233,89,0
calm,0,85.0,50.235,0.354,0.101,13.331,36.71,0.05,0.008,9.871,0.607,96.7,2025-07-16T18:10:28.557233,90,0
calm,0,57.75,36.509,0.316,0.04,16.457,36.29,-0.05,0.019,9.844,0.465,97.0,2025-07-16T18:10:29.557233,91,0
calm,0,78.612,64.542,0.186,0.018,15.31,36.72,-0.017,-0.013,9.793,0.373,97.0,2025-07-16T18:10:30.557233,92,0
calm,0,66.973,44.832,0.245,0.089,13.804,36.63,0.019,-0.074,9.699,0.812,96.7,2025-07-16T18:10:31.557233,93,0
calm,0,73.267,54.764,0.155,0.067,10.0,36.59,0.001,-0.008,9.779,0.841,96.8,2025-07-16T18:10:32.557233,94,0
calm,0,65.169,51.794,0.424,0.18,10.953,36.55,0.121,-0.159,9.803,0.625,97.3,2025-07-16T18:10:33.557233,95,0
calm,0,66.925,52.297,0.158,0.195,15.291,36.6,0.152,0.112,9.691,0.851,97.2,2025-07-16T18:10:34.557233,96,0
calm,0,65.541,48.526,0.357,0.177,17.827,36.52,-0.019,-0.112,9.823,0.637,97.2,2025-07-16T18:10:35.557233,97,0
calm,0,56.675,38.207,0.259,0.09,12.846,36.19,0.038,-0.098,9.812,0.373,97.7,2025-07-16T18:10:36.557233,98,0
calm,0,68.307,64.219,0.311,0.113,16.244,36.47,0.03,0.249,9.871,0.806,97.3,2025-07-16T18:10:37.557233,99,0
calm,0,62.969,40.95,0.365,0.071,12.446,36.5,-0.005,-0.034,9.812,0.882,97.6,2025-07-16T18:10:38.557233,100,0
calm,0,67.271,36.05,0.209,0.143,11.959,36.71,0.195,0.044,9.831,0.681,96.6,2025-07-16T18:10:39.557233,101,0
calm,0,64.151,57.363,0.313,0.11,15.716,36.44,-0.032,-0.055,9.807,0.907,97.8,2025-07-16T18:10:40.557233,102,0
calm,0,73.892,63.107,0.233,0.116,13.1,36.57,0.054,-0.042,9.864,0.413,97.8,2025-07-16T18:10:41.557233,103,0
calm,0,67.324,42.278,0.166,0.088,13.164,36.83,0.022,-0.034,9.851,0.905,97.4,2025-07-16T18:10:42.557233,104,0
calm,0,77.16,37.952,0.299,0.11,13.782,36.58,-0.17,-0.022,9.725,0.26,97.6,2025-07-16T18:10:43.557233,105,0
calm,0,67.805,43.171,0.416,0.06,15.053,36.46,0.032,-0.039,9.782,0.22,96.3,2025-07-16T18:10:44.557233,106,0
calm,0,65.044,40.437,0.333,0.134,17.827,36.64,0.05,0.231,9.791,0.596,96.4,2025-07-16T18:10:45.557233,107,0
calm,0,65.029,52.499,0.314,0.058,12.129,36.54,0.09,-0.078,9.826,0.296,97.6,2025-07-16T18:10:46.557233,108,0
calm,0,71.952,52.109,0.367,0.083,16.352,36.66,0.06,0.015,9.79,0.383,96.7,2025-07-16T18:10:47.557233,109,0
calm,0,55.074,56.01,0.407,0.049,16.491,36.32,-0.039,-0.072,9.799,0.312,96.8,2025-07-16T18:10:48.557233,110,0
calm,0,73.465,37.765,0.261,0.121,13.196,36.4,-0.193,-0.032,9.738,0.459,97.1,2025-07-16T18:10:49.557233,111,0
calm,0,80.746,51.376,0.356,0.058,13.822,36.94,0.025,-0.014,9.794,0.747,96.1,2025-07-16T18:10:50.557233,112,0
calm,0,64.638,46.337,0.337,0.132,15.482,36.61,0.044,-0.046,9.822,0.463,96.4,2025-07-16T18:10:51.557233,113,0
calm,0,79.029,47.977,0.355,0.183,10.0,36.66,0.054,0.049,9.751,0.207,97.1,2025-07-16T18:10:52.557233,114,0
calm,0,58.149,64.997,0.344,0.142,15.545,36.52,0.071,0.015,9.727,0.201,97.7,2025-07-16T18:10:53.557233,115,0
calm,0,66.939,41.325,0.399,0.097,14.762,36.58,0.06,-0.129,9.838,0.202,97.4,2025-07-16T18:10:54.557233,116,0
calm,0,75.515,50.718,0.191,0.086,14.716,36.6,-0.071,-0.093,9.749,0.596,96.8,2025-07-16T18:10:55.557233,117,0
calm,0,74.266,35.353,0.321,0.128,16.209,36.78,0.035,-0.222,9.856,0.264,97.6,2025-07-16T18:10:56.557233,118,0
calm,0,72.565,42.041,0.332,0.102,12.679,36.58,-0.072,0.053,9.761,0.953,96.5,2025-07-16T18:10:57.557233,119,0
calm,0,71.631,56.644,0.213,0.116,11.172,36.61,-0.111,-0.181,9.836,0.536,97.9,2025-07-16T18:10:58.557233,120,0
calm,0,69.745,64.817,0.219,0.013,14.849,36.54,0.001,-0.0,9.794,0.545,97.1,2025-07-16T18:10:59.557233,121,0
calm,0,76.233,35.988,0.403,0.155,15.117,36.57,0.194,0.108,9.774,0.321,95.8,2025-07-16T18:11:00.557233,122,0
calm,0,85.0,41.933,0.323,0.038,17.847,36.65,0.004,-0.023,9.792,0.931,96.7,2025-07-16T18:11:01.557233,123,0
calm,0,75.969,45.324,0.352,0.0,15.461,36.54,0.0,0.0,9.8,0.418,96.4,2025-07-16T18:11:02.557233,124,0
calm,0,74.974,34.916,0.347,0.059,13.162,36.58,0.096,0.034,9.788,0.192,96.1,2025-07-16T18:11:03.557233,125,0
calm,0,75.197,47.534,0.31,0.032,13.604,36.5,-0.015,-0.023,9.825,0.798,97.2,2025-07-16T18:11:04.557233,126,0
calm,0,68.349,39.215,0.331,0.076,14.901,36.47,0.12,-0.053,9.776,0.77,96.6,2025-07-16T18:11:05.557233,127,0
calm,0,65.726,62.149,0.375,0.0,16.054,36.67,0.0,0.0,9.8,0.86,97.3,2025-07-16T18:11:06.557233,128,0
calm,0,59.265,52.494,0.345,0.182,12.796,36.43,-0.188,0.393,9.793,0.206,97.7,2025-07-16T18:11:07.557233,129,0
calm,0,74.078,52.952,0.32,0.061,16.338,36.57,0.008,-0.003,9.828,0.995,97.1,2025-07-16T18:11:08.557233,130,0
calm,0,66.617,55.823,0.25,0.027,18.0,36.44,0.012,-0.008,9.815,0.877,97.3,2025-07-16T18:11:09.557233,131,0
calm,0,69.851,53.577,0.373,0.104,12.16,36.52,-0.073,-0.032,9.879,0.292,97.6,2025-07-16T18:11:10.557233,132,0
calm,0,85.0,48.361,0.323,0.099,15.778,36.87,-0.071,0.081,9.799,0.161,95.9,2025-07-16T18:11:11.557233,133,0
calm,0,84.854,44.492,0.236,0.1,12.806,36.89,0.086,0.231,9.874,0.427,96.8,2025-07-16T18:11:12.557233,134,0
calm,0,81.875,49.448,0.332,0.055,13.157,36.5,-0.128,-0.012,9.821,0.242,96.7,2025-07-16T18:11:13.557233,135,0
calm,0,72.049,34.562,0.419,0.104,11.024,36.59,-0.031,0.083,9.745,0.695,96.4,2025-07-16T18:11:14.557233,136,0
calm,0,74.832,37.73,0.178,0.054,18.0,36.58,-0.036,0.072,9.809,0.244,96.7,2025-07-16T18:11:15.557233,137,0
calm,0,74.59,40.814,0.375,0.054,11.98,36.76,0.013,-0.044,9.8,0.953,96.7,2025-07-16T18:11:16.557233,138,0
calm,0,68.241,36.917,0.349,0.104,14.792,36.5,-0.09,0.066,9.793,0.39,96.8,2025-07-16T18:11:17.557233,139,0
calm,0,69.264,35.056,0.339,0.133,13.937,36.61,-0.13,0.021,9.789,0.976,96.4,2025-07-16T18:11:18.557233,140,0
calm,0,83.568,50.084,0.338,0.112,14.761,36.85,0.08,0.015,9.811,0.986,96.4,2025-07-16T18:11:19.557233,141,0
calm,0,66.901,65.0,0.338,0.115,11.883,36.57,-0.068,0.054,9.833,0.51,96.8,2025-07-16T18:11:20.557233,142,0
calm,0,67.993,34.771,0.15,0.081,15.025,36.47,0.014,0.045,9.763,0.45,97.5,2025-07-16T18:11:21.557233,143,0
calm,0,77.41,31.041,0.234,0.168,11.678,36.52,-0.327,0.168,9.711,0.528,97.3,2025-07-16T18:11:22.557233,144,0
calm,0,56.941,55.12,0.155,0.067,14.26,36.47,-0.025,-0.043,9.797,0.696,97.6,2025-07-16T18:11:23.557233,145,0
calm,0,71.905,61.584,0.462,0.083,16.416,36.47,-0.102,0.035,9.711,0.51,96.3,2025-07-16T18:11:24.557233,146,0
calm,0,73.016,48.351,0.261,0.157,14.425,36.5,-0.152,0.162,9.77,0.561,96.1,2025-07-16T18:11:25.557233,147,0
calm,0,73.382,35.369,0.229,0.0,12.023,36.55,0.0,0.0,9.8,0.979,97.3,2025-07-16T18:11:26.557233,148,0
calm,0,58.516,46.121,0.245,0.154,15.152,36.61,0.134,-0.209,9.679,0.499,96.6,2025-07-16T18:11:27.557233,149,0
calm,0,74.925,30.0,0.317,0.055,15.121,36.49,-0.044,-0.06,9.782,0.496,96.5,2025-07-16T18:11:28.557233,150,0
calm,0,65.755,44.577,0.369,0.182,13.749,36.71,0.005,-0.002,9.785,0.525,96.0,2025-07-16T18:11:29.557233,151,0
calm,0,63.397,51.644,0.431,0.023,13.713,36.43,0.01,0.034,9.79,0.742,96.9,2025-07-16T18:11:30.557233,152,0
calm,0,60.505,42.415,0.229,0.084,14.368,36.54,0.02,0.121,9.835,0.499,98.9,2025-07-16T18:11:31.557233,153,0
calm,0,65.549,46.213,0.203,0.078,15.999,36.5,-0.049,-0.055,9.778,0.285,97.5,2025-07-16T18:11:32.557233,154,0
calm,0,71.48,30.0,0.34,0.071,13.435,36.7,0.078,0.04,9.843,0.4,96.4,2025-07-16T18:11:33.557233,155,0
calm,0,83.444,41.413,0.315,0.129,11.922,36.65,-0.11,0.075,9.849,0.947,97.1,2025-07-16T18:11:34.557233,156,0
calm,0,66.018,55.124,0.249,0.128,12.622,36.46,-0.319,-0.106,9.667,0.79,97.4,2025-07-16T18:11:35.557233,157,0
calm,0,72.198,50.505,0.31,0.125,16.186,36.78,0.296,0.11,9.744,0.175,96.4,2025-07-16T18:11:36.557233,158,0
calm,0,76.876,41.872,0.236,0.161,10.664,36.6,-0.094,-0.048,9.79,0.859,97.4,2025-07-16T18:11:37.557233,159,0
calm,0,60.958,37.571,0.234,0.152,12.845,36.64,0.093,0.134,9.814,0.84,97.7,2025-07-16T18:11:38.557233,160,0
calm,0,79.018,38.968,0.273,0.187,13.979,36.75,-0.098,-0.196,9.762,0.161,97.1,2025-07-16T18:11:39.557233,161,0
calm,0,72.326,45.849,0.281,0.083,12.27,36.53,-0.107,-0.033,9.779,0.17,96.3,2025-07-16T18:11:40.557233,162,0
calm,0,62.86,50.8,0.265,0.158,13.285,36.36,0.076,0.281,9.837,0.56,97.6,2025-07-16T18:11:41.557233,163,0
calm,0,70.387,56.826,0.187,0.195,14.111,36.53,-0.069,-0.168,9.748,0.242,97.9,2025-07-16T18:11:42.557233,164,0
calm,0,78.743,32.414,0.241,0.153,13.027,36.52,-0.058,0.284,9.723,0.474,96.4,2025-07-16T18:11:43.557233,165,0
calm,0,78.424,46.778,0.239,0.129,13.984,36.75,0.094,0.174,9.715,0.161,96.8,2025-07-16T18:11:44.557233,166,0
calm,0,76.32,48.762,0.472,0.092,15.485,36.59,0.03,-0.093,9.746,0.223,95.9,2025-07-16T18:11:45.557233,167,0
calm,0,71.336,39.07,0.345,0.01,15.317,36.38,-0.008,-0.008,9.8,0.383,96.5,2025-07-16T18:11:46.557233,168,0
calm,0,68.0,53.199,0.295,0.147,10.373,36.6,0.326,-0.156,9.8,0.876,97.1,2025-07-16T18:11:47.557233,169,0
calm,0,66.888,49.076,0.322,0.012,10.494,36.48,-0.001,0.01,9.787,0.499,96.5,2025-07-16T18:11:48.557233,170,0
calm,0,72.01,46.254,0.447,0.15,15.577,36.61,0.004,0.251,9.863,0.49,95.6,2025-07-16T18:11:49.557233,171,0
calm,0,63.692,52.642,0.463,0.105,13.608,36.51,-0.024,-0.07,9.829,0.639,96.7,2025-07-16T18:11:50.557233,172,0
calm,0,62.161,35.782,0.426,0.125,13.879,36.46,-0.032,0.023,9.733,0.604,96.7,2025-07-16T18:11:51.557233,173,0
calm,0,72.47,47.01,0.311,0.064,12.538,36.52,-0.098,0.029,9.778,0.512,96.1,2025-07-16T18:11:52.557233,174,0
calm,0,66.766,36.36,0.338,0.065,16.438,36.54,0.094,-0.014,9.791,0.987,96.9,2025-07-16T18:11:53.557233,175,0
calm,0,61.003,45.27,0.331,0.126,17.955,36.23,0.133,-0.007,9.752,0.843,97.7,2025-07-16T18:11:54.557233,176,0
calm,0,71.934,42.093,0.319,0.084,18.0,36.41,-0.067,0.017,9.786,0.433,97.5,2025-07-16T18:11:55.557233,177,0
calm,0,67.473,43.389,0.326,0.031,13.678,36.66,0.0,0.005,9.795,0.472,97.5,2025-07-16T18:11:56.557233,178,0
calm,0,74.288,65.0,0.463,0.152,14.517,36.59,0.018,0.247,9.683,0.229,96.4,2025-07-16T18:11:57.557233,179,0
focused,1,70.684,61.669,0.406,0.099,15.155,36.52,-0.078,0.057,9.8,0.496,96.4,2025-07-16T18:11:58.557233,180,0
focused,1,70.494,54.376,0.425,0.051,14.69,36.77,-0.006,0.057,9.801,0.554,96.6,2025-07-16T18:11:59.557233,181,0
focused,1,80.098,47.224,0.33,0.041,17.563,36.49,0.061,0.033,9.791,0.567,95.9,2025-07-16T18:12:00.557233,182,0
focused,1,81.705,50.048,0.399,0.036,15.011,36.71,-0.018,0.04,9.776,0.131,95.8,2025-07-16T18:12:01.557233,183,0
focused,1,78.901,52.541,0.283,0.029,16.654,36.62,0.016,-0.012,9.804,0.254,97.2,2025-07-16T18:12:02.557233,184,0
focused,1,83.91,45.149,0.357,0.017,16.026,36.66,0.015,0.0,9.792,0.927,96.9,2025-07-16T18:12:03.557233,185,0
focused,1,79.093,58.104,0.437,0.061,16.567,36.44,-0.033,-0.034,9.87,0.335,96.1,2025-07-16T18:12:04.557233,186,0
focused,1,90.0,61.64,0.299,0.055,16.205,36.7,-0.038,0.033,9.816,0.326,96.0,2025-07-16T18:12:05.557233,187,0
focused,1,72.079,43.9,0.35,0.023,16.042,36.64,-0.014,0.001,9.797,0.569,98.0,2025-07-16T18:12:06.557233,188,0
focused,1,82.393,46.724,0.298,0.054,13.684,36.79,0.01,0.048,9.787,0.661,96.3,2025-07-16T18:12:07.557233,189,0
focused,1,75.842,63.957,0.374,0.059,14.589,36.71,-0.026,-0.029,9.82,0.288,97.1,2025-07-16T18:12:08.557233,190,0
focused,1,73.189,44.897,0.359,0.052,14.375,36.5,0.048,0.03,9.792,0.81,96.3,2025-07-16T18:12:09.557233,191,0
focused,1,74.634,39.239,0.37,0.05,15.993,36.57,-0.034,-0.054,9.82,0.413,97.1,2025-07-16T18:12:10.557233,192,0
focused,1,70.47,54.679,0.395,0.03,12.0,36.53,0.008,0.063,9.807,0.416,97.1,2025-07-16T18:12:11.557233,193,0
focused,1,88.36,51.341,0.422,0.019,17.27,36.67,0.004,-0.001,9.798,1.0,96.4,2025-07-16T18:12:12.557233,194,0
focused,1,85.168,43.31,0.363,0.08,16.561,36.57,0.048,-0.074,9.768,0.367,96.1,2025-07-16T18:12:13.557233,195,0
focused,1,80.676,45.084,0.312,0.107,14.528,36.64,0.038,0.141,9.751,0.79,96.1,2025-07-16T18:12:14.557233,196,0
focused,1,72.139,58.01,0.479,0.037,14.969,36.76,-0.023,0.076,9.795,0.201,96.7,2025-07-16T18:12:15.557233,197,0
focused,1,77.176,46.707,0.473,0.07,14.548,36.41,-0.087,0.228,9.766,0.92,96.7,2025-07-16T18:12:16.557233,198,0
focused,1,71.14,61.432,0.28,0.065,12.583,36.5,-0.198,-0.079,9.707,0.298,96.8,2025-07-16T18:12:17.557233,199,0
focused,1,68.92,56.803,0.446,0.066,15.712,36.52,-0.099,0.039,9.77,0.104,97.3,2025-07-16T18:12:18.557233,200,0
focused,1,72.913,45.804,0.336,0.033,14.471,36.55,0.047,-0.059,9.809,0.926,97.9,2025-07-16T18:12:19.557233,201,0
focused,1,82.215,52.205,0.342,0.045,15.506,36.72,-0.024,0.046,9.827,0.393,96.7,2025-07-16T18:12:20.557233,202,0
focused,1,72.106,61.125,0.347,0.045,12.574,36.61,-0.008,-0.042,9.799,0.683,96.9,2025-07-16T18:12:21.557233,203,0
focused,1,80.784,39.286,0.445,0.079,18.0,36.63,-0.164,0.259,9.781,0.99,96.3,2025-07-16T18:12:22.557233,204,0
focused,1,69.849,46.386,0.509,0.036,13.709,36.43,0.019,-0.025,9.776,0.104,96.8,2025-07-16T18:12:23.557233,205,0
focused,1,81.39,39.881,0.4,0.061,16.041,36.89,-0.027,-0.007,9.785,0.209,96.1,2025-07-16T18:12:24.557233,206,0
focused,1,75.579,56.528,0.33,0.066,12.478,36.49,-0.034,-0.002,9.839,0.972,96.4,2025-07-16T18:12:25.557233,207,0
focused,1,80.554,52.9,0.483,0.063,13.602,36.51,-0.039,-0.013,9.76,0.681,95.9,2025-07-16T18:12:26.557233,208,0
focused,1,81.661,58.574,0.34,0.003,18.0,36.68,-0.0,-0.0,9.801,0.534,97.3,2025-07-16T18:12:27.557233,209,0
focused,1,81.493,46.085,0.363,0.039,14.632,36.64,-0.017,-0.039,9.805,0.356,97.2,2025-07-16T18:12:28.557233,210,0
focused,1,81.905,59.359,0.43,0.07,15.249,36.36,0.127,-0.108,9.791,0.227,96.1,2025-07-16T18:12:29.557233,211,0
focused,1,69.306,50.244,0.476,0.086,13.325,36.47,-0.089,-0.023,9.829,0.994,96.6,2025-07-16T18:12:30.557233,212,0
focused,1,81.276,49.529,0.492,0.036,13.962,36.59,-0.027,-0.001,9.772,0.357,96.4,2025-07-16T18:12:31.557233,213,0
focused,1,80.786,49.572,0.361,0.051,14.583,36.56,0.076,0.027,9.799,0.43,96.5,2025-07-16T18:12:32.557233,214,0
focused,1,77.773,49.741,0.351,0.027,14.632,36.67,-0.053,0.004,9.803,0.463,96.5,2025-07-16T18:12:33.557233,215,0
focused,1,77.573,62.229,0.499,0.046,13.699,36.44,0.017,-0.015,9.781,0.361,96.8,2025-07-16T18:12:34.557233,216,0
focused,1,82.264,53.914,0.299,0.056,15.868,36.6,-0.027,0.053,9.777,0.744,96.6,2025-07-16T18:12:35.557233,217,0
focused,1,71.004,56.784,0.431,0.044,12.936,36.44,0.062,-0.043,9.808,0.227,97.2,2025-07-16T18:12:36.557233,218,0
focused,1,75.066,45.691,0.401,0.084,15.058,36.55,0.09,-0.079,9.806,0.362,97.0,2025-07-16T18:12:37.557233,219,0
focused,1,73.715,54.95,0.455,0.056,17.48,36.58,0.033,0.052,9.814,0.225,96.6,2025-07-16T18:12:38.557233,220,0
focused,1,66.796,45.573,0.418,0.008,16.456,36.54,-0.003,0.005,9.792,0.333,97.1,2025-07-16T18:12:39.557233,221,0
focused,1,69.878,63.849,0.353,0.059,13.654,36.5,0.048,-0.02,9.854,0.636,97.9,2025-07-16T18:12:40.557233,222,0
focused,1,77.034,55.01,0.294,0.037,17.622,36.53,-0.005,0.032,9.785,0.465,96.3,2025-07-16T18:12:41.557233,223,0
focused,1,67.409,42.764,0.443,0.039,14.497,36.54,-0.067,0.008,9.792,0.971,96.8,2025-07-16T18:12:42.557233,224,0
focused,1,78.906,61.705,0.478,0.016,13.511,36.7,0.027,0.021,9.799,0.86,96.4,2025-07-16T18:12:43.557233,225,0
focused,1,80.06,53.489,0.539,0.069,12.872,36.63,-0.113,-0.037,9.8,0.299,96.0,2025-07-16T18:12:44.557233,226,0
focused,1,73.518,53.893,0.389,0.09,14.604,36.63,-0.031,-0.051,9.722,0.587,96.8,2025-07-16T18:12:45.557233,227,0
focused,1,81.905,64.175,0.442,0.06,16.12,36.58,-0.033,-0.018,9.754,0.419,96.4,2025-07-16T18:12:46.557233,228,0
focused,1,74.583,45.826,0.415,0.036,16.017,36.53,-0.012,-0.037,9.785,0.395,96.4,2025-07-16T18:12:47.557233,229,0
focused,1,70.487,59.791,0.392,0.06,13.513,36.47,0.024,0.034,9.791,0.132,96.5,2025-07-16T18:12:48.557233,230,0
focused,1,82.53,54.628,0.449,0.049,15.51,36.57,0.021,0.083,9.809,0.187,96.1,2025-07-16T18:12:49.557233,231,0
focused,1,75.163,56.793,0.409,0.022,14.636,36.49,0.066,0.02,9.792,0.684,96.3,2025-07-16T18:12:50.557233,232,0
focused,1,76.898,35.692,0.423,0.035,16.077,36.76,0.019,-0.029,9.794,0.962,97.0,2025-07-16T18:12:51.557233,233,0
focused,1,75.496,56.964,0.319,0.071,13.915,36.5,-0.09,0.069,9.783,0.444,97.5,2025-07-16T18:12:52.557233,234,0
focused,1,75.311,46.068,0.46,0.049,15.139,36.61,0.054,-0.086,9.819,0.129,96.5,2025-07-16T18:12:53.557233,235,0
focused,1,90.0,58.916,0.439,0.038,16.363,36.66,0.005,-0.022,9.794,0.291,96.0,2025-07-16T18:12:54.557233,236,0
focused,1,84.013,43.944,0.45,0.041,14.248,36.79,-0.037,-0.007,9.81,0.989,97.4,2025-07-16T18:12:55.557233,237,0
focused,1,66.973,49.795,0.297,0.066,15.457,36.49,-0.018,0.03,9.757,0.881,97.1,2025-07-16T18:12:56.557233,238,0
focused,1,78.122,53.923,0.402,0.051,14.532,36.71,0.013,-0.022,9.803,0.902,96.8,2025-07-16T18:12:57.557233,239,0
focused,1,80.267,49.389,0.435,0.04,12.499,36.46,-0.042,0.024,9.765,0.342,96.9,2025-07-16T18:12:58.557233,240,0
focused,1,74.293,53.867,0.432,0.047,16.021,36.47,-0.05,0.046,9.822,0.861,96.9,2025-07-16T18:12:59.557233,241,0
focused,1,81.155,39.679,0.436,0.012,14.537,36.51,-0.005,-0.009,9.802,0.291,96.4,2025-07-16T18:13:00.557233,242,0
focused,1,68.863,55.136,0.354,0.037,13.464,36.62,0.072,-0.047,9.779,0.668,96.4,2025-07-16T18:13:01.557233,243,0
focused,1,76.446,50.284,0.416,0.04,12.249,36.52,0.004,0.03,9.793,0.331,96.4,2025-07-16T18:13:02.557233,244,0
focused,1,71.335,45.735,0.382,0.018,15.408,36.59,0.001,0.006,9.802,0.994,97.5,2025-07-16T18:13:03.557233,245,0
focused,1,83.435,44.061,0.446,0.075,13.138,36.57,0.098,-0.022,9.813,0.605,96.7,2025-07-16T18:13:04.557233,246,0
focused,1,87.918,52.067,0.455,0.064,14.99,36.64,-0.015,0.012,9.852,0.788,96.3,2025-07-16T18:13:05.557233,247,0
focused,1,75.477,42.211,0.521,0.053,16.098,36.47,-0.036,-0.13,9.823,0.178,96.6,2025-07-16T18:13:06.557233,248,0
focused,1,65.0,57.2,0.377,0.067,14.915,36.52,0.007,0.002,9.783,0.204,97.4,2025-07-16T18:13:07.557233,249,0
focused,1,66.693,64.797,0.489,0.046,14.948,36.51,0.016,0.022,9.82,0.81,97.1,2025-07-16T18:13:08.557233,250,0
focused,1,73.338,51.134,0.353,0.002,15.935,36.54,-0.002,0.0,9.8,0.537,96.2,2025-07-16T18:13:09.557233,251,0
focused,1,77.684,48.653,0.438,0.054,13.293,36.66,-0.006,-0.039,9.866,0.945,96.4,2025-07-16T18:13:10.557233,252,0
focused,1,82.301,40.173,0.389,0.05,15.343,36.77,-0.062,0.002,9.807,0.527,95.8,2025-07-16T18:13:11.557233,253,0
focused,1,82.22,35.0,0.353,0.063,15.238,36.75,0.02,-0.04,9.806,0.439,96.7,2025-07-16T18:13:12.557233,254,0
focused,1,73.433,43.631,0.393,0.035,13.102,36.56,-0.047,0.006,9.799,0.698,96.3,2025-07-16T18:13:13.557233,255,0
focused,1,72.779,49.247,0.411,0.04,15.006,36.55,-0.027,-0.014,9.799,0.638,97.4,2025-07-16T18:13:14.557233,256,0
focused,1,65.0,47.86,0.407,0.068,13.741,36.45,-0.041,0.033,9.77,0.771,97.4,2025-07-16T18:13:15.557233,257,0
focused,1,77.345,54.633,0.371,0.085,14.323,36.72,0.033,-0.166,9.689,0.167,97.0,2025-07-16T18:13:16.557233,258,0
focused,1,70.915,52.873,0.275,0.068,16.735,36.55,0.001,-0.038,9.754,0.492,97.7,2025-07-16T18:13:17.557233,259,0
focused,1,70.798,46.843,0.355,0.06,14.02,36.51,-0.117,0.027,9.763,0.425,97.7,2025-07-16T18:13:18.557233,260,0
focused,1,80.127,41.668,0.426,0.064,14.678,36.58,0.098,-0.019,9.807,0.371,96.7,2025-07-16T18:13:19.557233,261,0
focused,1,68.906,37.359,0.311,0.023,15.164,36.4,-0.004,-0.046,9.811,0.515,97.6,2025-07-16T18:13:20.557233,262,0
focused,1,73.8,59.199,0.289,0.07,13.8,36.56,0.083,0.01,9.812,0.801,96.3,2025-07-16T18:13:21.557233,263,0
focused,1,86.113,39.085,0.462,0.031,15.969,36.45,0.003,-0.038,9.792,0.172,96.6,2025-07-16T18:13:22.557233,264,0
focused,1,90.0,60.091,0.436,0.088,16.106,36.69,-0.195,-0.014,9.816,0.416,95.7,2025-07-16T18:13:23.557233,265,0
focused,1,90.0,41.143,0.378,0.053,14.461,36.63,0.0,0.096,9.849,0.497,95.8,2025-07-16T18:13:24.557233,266,0
focused,1,72.631,37.971,0.451,0.068,14.603,36.67,0.099,-0.109,9.791,0.12,96.7,2025-07-16T18:13:25.557233,267,0
focused,1,83.34,41.818,0.394,0.008,13.252,36.62,0.002,0.025,9.798,0.933,95.4,2025-07-16T18:13:26.557233,268,0
focused,1,76.428,38.688,0.4,0.03,16.176,36.47,-0.058,0.01,9.808,0.351,96.3,2025-07-16T18:13:27.557233,269,0
focused,1,79.346,52.55,0.348,0.019,14.685,36.6,0.021,-0.013,9.796,0.2,96.6,2025-07-16T18:13:28.557233,270,0
focused,1,71.603,63.834,0.383,0.046,14.243,36.51,0.048,-0.013,9.787,0.538,96.6,2025-07-16T18:13:29.557233,271,0
focused,1,77.107,50.305,0.403,0.087,14.88,36.66,-0.043,-0.061,9.738,0.294,97.3,2025-07-16T18:13:30.557233,272,0
focused,1,74.172,54.097,0.426,0.065,14.209,36.45,-0.11,-0.048,9.827,0.364,97.3,2025-07-16T18:13:31.557233,273,0
focused,1,74.31,45.849,0.251,0.066,13.788,36.39,0.029,0.045,9.801,0.289,97.3,2025-07-16T18:13:32.557233,274,0
focused,1,72.369,60.33,0.339,0.005,16.692,36.49,0.006,0.002,9.803,0.19,96.2,2025-07-16T18:13:33.557233,275,0
focused,1,74.344,63.844,0.442,0.056,13.144,36.48,0.063,0.028,9.807,0.734,96.1,2025-07-16T18:13:34.557233,276,0
focused,1,83.253,44.247,0.399,0.047,16.239,36.59,-0.023,-0.02,9.806,0.142,96.4,2025-07-16T18:13:35.557233,277,0
focused,1,66.824,44.338,0.372,0.053,12.269,36.35,-0.117,-0.046,9.851,0.93,97.5,2025-07-16T18:13:36.557233,278,0
focused,1,78.141,53.001,0.339,0.04,12.311,36.58,0.002,0.05,9.756,0.905,97.0,2025-07-16T18:13:37.557233,279,0
focused,1,76.743,50.75,0.357,0.04,16.096,36.43,0.025,0.086,9.797,0.526,96.1,2025-07-16T18:13:38.557233,280,0
focused,1,77.713,39.759,0.298,0.036,15.864,36.65,-0.074,0.008,9.783,0.45,96.8,2025-07-16T18:13:39.557233,281,0
focused,1,66.139,46.02,0.369,0.078,13.418,36.39,-0.044,-0.013,9.767,0.112,97.1,2025-07-16T18:13:40.557233,282,0
focused,1,78.057,53.076,0.505,0.038,14.262,36.46,0.01,-0.007,9.821,0.167,96.4,2025-07-16T18:13:41.557233,283,0
focused,1,77.631,56.561,0.4,0.032,12.903,36.66,0.016,-0.007,9.79,0.738,96.6,2025-07-16T18:13:42.557233,284,0
focused,1,73.541,55.795,0.439,0.033,17.002,36.45,-0.017,0.015,9.79,0.224,96.0,2025-07-16T18:13:43.557233,285,0
focused,1,76.046,54.107,0.459,0.072,14.957,36.5,0.01,-0.004,9.781,0.354,97.2,2025-07-16T18:13:44.557233,286,0
focused,1,76.007,38.498,0.448,0.068,13.418,36.59,-0.043,-0.01,9.79,0.363,96.8,2025-07-16T18:13:45.557233,287,0
focused,1,80.56,52.392,0.293,0.031,15.759,36.64,-0.002,0.01,9.812,0.166,97.1,2025-07-16T18:13:46.557233,288,0
focused,1,73.021,44.216,0.371,0.056,15.073,36.52,-0.085,0.062,9.801,0.808,97.0,2025-07-16T18:13:47.557233,289,0
focused,1,85.39,40.189,0.407,0.055,14.876,36.79,-0.013,-0.013,9.769,0.646,95.9,2025-07-16T18:13:48.557233,290,0
focused,1,66.815,44.151,0.371,0.081,13.991,36.42,0.015,0.015,9.851,0.943,96.3,2025-07-16T18:13:49.557233,291,0
focused,1,83.252,35.446,0.403,0.055,15.957,36.59,0.045,0.076,9.805,0.623,96.2,2025-07-16T18:13:50.557233,292,0
focused,1,71.855,46.925,0.457,0.074,15.758,36.52,-0.102,0.008,9.767,0.584,96.4,2025-07-16T18:13:51.557233,293,0
focused,1,71.925,63.173,0.485,0.041,14.782,36.57,-0.068,0.016,9.795,0.534,96.6,2025-07-16T18:13:52.557233,294,0
focused,1,73.273,64.009,0.46,0.048,14.964,36.48,-0.016,0.041,9.832,0.769,97.5,2025-07-16T18:13:53.557233,295,0
focused,1,81.392,60.617,0.391,0.067,17.769,36.53,0.07,-0.038,9.823,0.518,95.5,2025-07-16T18:13:54.557233,296,0
focused,1,77.129,49.2,0.319,0.066,15.725,36.75,0.014,-0.074,9.83,0.317,96.4,2025-07-16T18:13:55.557233,297,0
focused,1,65.94,48.003,0.473,0.04,15.053,36.47,0.032,0.055,9.801,0.136,96.6,2025-07-16T18:13:56.557233,298,0
focused,1,74.371,43.074,0.406,0.037,13.888,36.34,-0.019,-0.006,9.812,0.254,96.4,2025-07-16T18:13:57.557233,299,0
calm,0,70.01,40.533,0.251,0.087,15.794,36.52,0.022,0.26,9.825,0.506,97.2,2025-07-16T18:08:58.610712,0,1
calm,0,71.107,55.101,0.381,0.162,16.105,36.46,-0.247,0.044,9.817,0.833,97.3,2025-07-16T18:08:59.610712,1,1
calm,0,63.795,45.481,0.3,0.188,13.55,36.55,0.146,0.134,9.811,0.24,97.9,2025-07-16T18:09:00.610712,2,1
calm,0,82.407,38.671,0.424,0.076,14.553,36.7,-0.057,-0.038,9.836,0.14,96.4,2025-07-16T18:09:01.610712,3,1
calm,0,65.884,43.503,0.339,0.139,13.918,36.52,-0.083,0.035,9.788,0.929,96.9,2025-07-16T18:09:02.610712,4,1
calm,0,77.718,61.529,0.204,0.078,13.44,36.66,0.062,0.007,9.863,0.502,97.3,2025-07-16T18:09:03.610712,5,1
calm,0,57.977,42.561,0.421,0.177,13.314,36.42,-0.232,-0.117,9.767,0.657,98.3,2025-07-16T18:09:04.610712,6,1
calm,0,61.075,47.084,0.259,0.093,13.782,36.46,-0.033,-0.01,9.756,0.775,97.0,2025-07-16T18:09:05.610712,7,1
calm,0,79.402,38.82,0.293,0.11,13.434,36.58,-0.064,0.064,9.876,0.402,97.0,2025-07-16T18:09:06.610712,8,1
calm,0,62.14,37.865,0.169,0.167,17.93,36.6,-0.034,-0.074,9.822,0.432,97.8,2025-07-16T18:09:07.610712,9,1
calm,0,78.005,40.579,0.363,0.146,14.452,36.81,0.115,0.041,9.8,0.184,97.0,2025-07-16T18:09:08.610712,10,1
calm,0,68.654,58.905,0.225,0.145,11.262,36.57,0.222,-0.075,9.846,0.869,97.6,2025-07-16T18:09:09.610712,11,1
calm,0,76.667,64.371,0.242,0.119,13.014,36.63,-0.195,-0.118,9.761,0.124,96.8,2025-07-16T18:09:10.610712,12,1
calm,0,56.239,41.278,0.3,0.191,11.507,36.54,-0.06,0.023,9.783,0.112,97.0,2025-07-16T18:09:11.610712,13,1
calm,0,64.471,38.793,0.218,0.207,12.592,36.55,0.44,0.013,9.669,0.378,96.9,2025-07-16T18:09:12.610712,14,1
calm,0,79.369,55.123,0.25,0.104,13.463,36.59,0.038,0.124,9.752,0.376,97.3,2025-07-16T18:09:13.610712,15,1
calm,0,83.717,54.995,0.244,0.104,15.887,36.83,-0.242,0.147,9.809,0.178,96.2,2025-07-16T18:09:14.610712,16,1
calm,0,68.36,33.668,0.302,0.14,13.012,36.46,-0.039,-0.191,9.766,0.664,97.3,2025-07-16T18:09:15.610712,17,1
calm,0,73.172,35.974,0.367,0.081,14.218,36.8,-0.149,0.027,9.793,0.723,97.1,2025-07-16T18:09:16.610712,18,1
calm,0,78.096,34.366,0.301,0.075,12.474,36.59,-0.006,-0.007,9.78,0.195,96.7,2025-07-16T18:09:17.610712,19,1
calm,0,75.901,41.695,0.32,0.119,12.576,36.58,0.096,-0.081,9.841,0.744,97.4,2025-07-16T18:09:18.610712,20,1
calm,0,58.712,56.151,0.207,0.049,13.358,36.47,-0.008,-0.003,9.772,0.56,97.6,2025-07-16T18:09:19.610712,21,1
calm,0,83.449,46.018,0.248,0.148,15.026,36.81,0.043,0.033,9.679,0.396,96.9,2025-07-16T18:09:20.610712,22,1
calm,0,72.306,57.819,0.172,0.061,17.246,36.57,0.016,-0.086,9.776,0.146,96.4,2025-07-16T18:09:21.610712,23,1
calm,0,73.693,35.679,0.378,0.134,14.567,36.5,0.16,-0.036,9.823,0.775,96.7,2025-07-16T18:09:22.610712,24,1
calm,0,55.183,42.468,0.464,0.066,10.902,36.33,0.02,-0.037,9.722,0.355,97.1,2025-07-16T18:09:23.610712,25,1
calm,0,68.67,41.766,0.251,0.015,15.344,36.54,-0.014,-0.006,9.799,0.637,96.9,2025-07-16T18:09:24.610712,26,1
calm,0,71.217,40.43,0.231,0.143,12.593,36.53,0.09,-0.005,9.828,0.888,97.2,2025-07-16T18:09:25.610712,27,1
calm,0,79.352,31.095,0.457,0.059,11.32,36.54,0.033,-0.111,9.801,0.964,96.0,2025-07-16T18:09:26.610712,28,1
calm,0,74.645,46.245,0.158,0.123,14.738,36.58,0.082,0.074,9.646,0.714,97.7,2025-07-16T18:09:27.610712,29,1
calm,0,82.56,30.0,0.287,0.072,13.542,36.8,0.1,-0.092,9.827,0.559,96.4,2025-07-16T18:09:28.610712,30,1
calm,0,74.653,36.648,0.277,0.159,12.495,36.49,0.064,0.154,9.671,0.177,96.1,2025-07-16T18:09:29.610712,31,1
calm,0,75.305,51.256,0.327,0.082,14.087,36.75,-0.025,-0.083,9.748,0.24,96.7,2025-07-16T18:09:30.610712,32,1
calm,0,76.814,37.692,0.368,0.158,15.91,36.49,0.206,0.272,9.908,0.608,96.9,2025-07-16T18:09:31.610712,33,1
calm,0,67.878,48.286,0.286,0.129,12.307,36.67,-0.025,-0.036,9.791,0.118,96.6,2025-07-16T18:09:32.610712,34,1
calm,0,69.349,55.918,0.272,0.109,10.521,36.74,-0.053,-0.038,9.759,0.546,97.1,2025-07-16T18:09:33.610712,35,1
calm,0,60.578,46.889,0.301,0.113,10.224,36.53,-0.076,-0.002,9.921,0.529,98.3,2025-07-16T18:09:34.610712,36,1
calm,0,68.944,40.326,0.391,0.111,14.207,36.63,-0.064,0.001,9.651,0.621,96.8,2025-07-16T18:09:35.610712,37,1
calm,0,62.532,49.228,0.234,0.117,10.0,36.44,-0.197,0.03,9.869,0.557,98.2,2025-07-16T18:09:36.610712,38,1
calm,0,66.771,42.1,0.304,0.028,15.524,36.43,0.009,-0.033,9.818,0.727,96.5,2025-07-16T18:09:37.610712,39,1
calm,0,67.099,54.845,0.326,0.172,14.436,36.43,0.33,-0.114,9.814,0.818,97.1,2025-07-16T18:09:38.610712,40,1
calm,0,73.428,46.817,0.42,0.137,11.988,36.6,-0.155,-0.016,9.81,0.383,96.5,2025-07-16T18:09:39.610712,41,1
calm,0,82.977,30.0,0.427,0.158,12.403,36.65,-0.106,0.079,9.847,0.868,96.9,2025-07-16T18:09:40.610712,42,1
calm,0,74.13,44.368,0.274,0.085,15.836,36.83,-0.003,0.056,9.796,0.779,97.0,2025-07-16T18:09:41.610712,43,1
calm,0,70.035,45.359,0.224,0.204,10.137,36.68,0.22,0.029,9.783,0.644,96.4,2025-07-16T18:09:42.610712,44,1
calm,0,76.827,50.811,0.264,0.079,15.539,36.64,0.018,0.086,9.745,0.492,96.4,2025-07-16T18:09:43.610712,45,1
calm,0,80.884,38.642,0.368,0.125,13.628,36.66,-0.279,0.049,9.797,0.66,97.0,2025-07-16T18:09:44.610712,46,1
calm,0,81.627,50.416,0.31,0.142,12.424,36.61,-0.013,-0.262,9.733,0.855,95.5,2025-07-16T18:09:45.610712,47,1
calm,0,73.654,34.234,0.346,0.112,13.721,36.61,0.051,0.044,9.839,0.513,97.7,2025-07-16T18:09:46.610712,48,1
calm,0,85.0,56.791,0.3,0.085,14.858,36.67,0.13,-0.032,9.825,0.66,97.4,2025-07-16T18:09:47.610712,49,1
calm,0,83.606,30.323,0.382,0.109,12.053,36.65,-0.154,-0.064,9.749,0.138,97.2,2025-07-16T18:09:48.610712,50,1
calm,0,65.51,51.032,0.378,0.173,16.845,36.57,-0.095,0.148,9.664,0.839,96.4,2025-07-16T18:09:49.610712,51,1
calm,0,72.237,47.838,0.384,0.129,17.631,36.52,-0.111,0.035,9.8,0.128,96.5,2025-07-16T18:09:50.610712,52,1
calm,0,62.433,55.593,0.191,0.02,16.044,36.34,-0.0,0.025,9.798,0.688,97.8,2025-07-16T18:09:51.610712,53,1
calm,0,77.624,45.403,0.318,0.162,17.296,36.71,0.032,0.012,9.713,0.635,96.2,2025-07-16T18:09:52.610712,54,1
calm,0,64.341,56.509,0.397,0.048,13.866,36.66,0.047,-0.052,9.795,0.712,97.4,2025-07-16T18:09:53.610712,55,1
calm,0,62.615,40.164,0.283,0.116,14.27,36.56,0.043,0.176,9.822,0.123,97.9,2025-07-16T18:09:54.610712,56,1
calm,0,77.498,33.332,0.314,0.172,12.416,36.68,0.097,-0.149,9.819,0.499,97.3,2025-07-16T18:09:55.610712,57,1
calm,0,64.368,61.016,0.332,0.0,12.0,36.49,0.0,0.0,9.8,0.777,96.9,2025-07-16T18:09:56.610712,58,1
calm,0,68.959,33.764,0.282,0.048,17.484,36.39,-0.049,-0.009,9.826,0.816,96.9,2025-07-16T18:09:57.610712,59,1
calm,0,55.0,42.695,0.232,0.142,16.728,36.6,-0.01,-0.122,9.789,0.496,97.8,2025-07-16T18:09:58.610712,60,1
calm,0,63.325,56.813,0.27,0.111,16.858,36.62,0.142,-0.191,9.832,0.104,96.9,2025-07-16T18:09:59.610712,61,1
calm,0,72.215,44.683,0.401,0.141,10.445,36.63,0.024,0.097,9.98,0.414,96.9,2025-07-16T18:10:00.610712,62,1
calm,0,69.154,42.911,0.28,0.079,13.339,36.49,-0.005,-0.015,9.82,0.123,96.9,2025-07-16T18:10:01.610712,63,1
calm,0,79.152,51.856,0.263,0.082,11.325,36.6,-0.04,-0.059,9.79,0.799,96.8,2025-07-16T18:10:02.610712,64,1
calm,0,69.761,30.065,0.239,0.107,13.64,36.6,-0.009,0.038,9.843,0.47,96.7,2025-07-16T18:10:03.610712,65,1
calm,0,76.786,38.922,0.238,0.071,14.383,36.75,-0.006,0.004,9.766,0.893,97.2,2025-07-16T18:10:04.610712,66,1
calm,0,61.219,51.795,0.312,0.051,15.173,36.42,-0.021,-0.017,9.789,0.718,97.3,2025-07-16T18:10:05.610712,67,1
calm,0,67.077,52.236,0.299,0.076,14.851,36.53,-0.042,-0.006,9.818,0.289,97.2,2025-07-16T18:10:06.610712,68,1
calm,0,59.881,42.524,0.445,0.0,17.834,36.44,0.0,0.0,9.8,0.955,97.2,2025-07-16T18:10:07.610712,69,1
calm,0,58.6,52.1,0.388,0.148,16.905,36.38,-0.226,-0.096,9.832,0.378,97.1,2025-07-16T18:10:08.610712,70,1
calm,0,81.855,65.0,0.296,0.145,12.452,36.8,0.235,-0.039,9.827,0.524,96.2,2025-07-16T18:10:09.610712,71,1
calm,0,78.531,57.263,0.292,0.16,14.049,36.71,0.148,-0.168,9.895,0.416,96.7,2025-07-16T18:10:10.610712,72,1
calm,0,74.011,36.127,0.22,0.051,13.877,36.57,0.009,0.011,9.809,0.723,96.8,2025-07-16T18:10:11.610712,73,1
calm,0,71.196,41.891,0.217,0.134,13.42,36.64,0.025,-0.254,9.835,0.616,97.9,2025-07-16T18:10:12.610712,74,1
calm,0,70.781,56.862,0.361,0.12,17.531,36.47,-0.172,-0.108,9.741,0.287,97.4,2025-07-16T18:10:13.610712,75,1
calm,0,68.447,49.562,0.302,0.104,16.319,36.63,-0.113,0.065,9.736,0.982,97.6,2025-07-16T18:10:14.610712,76,1
calm,0,77.24,30.0,0.402,0.076,18.0,36.79,0.02,0.054,9.78,0.694,96.9,2025-07-16T18:10:15.610712,77,1
calm,0,73.465,60.914,0.5,0.044,16.759,36.58,0.035,-0.081,9.795,0.459,95.6,2025-07-16T18:10:16.610712,78,1
calm,0,71.915,30.813,0.193,0.123,12.293,36.47,0.048,-0.223,9.786,0.366,97.3,2025-07-16T18:10:17.610712,79,1
calm,0,62.853,52.208,0.267,0.197,17.879,36.45,0.145,0.352,9.654,0.72,96.9,2025-07-16T18:10:18.610712,80,1
calm,0,74.802,40.17,0.44,0.176,17.56,36.77,-0.092,-0.171,9.761,0.129,96.3,2025-07-16T18:10:19.610712,81,1
calm,0,70.04,34.919,0.269,0.13,14.386,36.38,0.249,-0.107,9.897,0.958,96.6,2025-07-16T18:10:20.610712,82,1
calm,0,60.893,36.008,0.332,0.096,14.484,36.33,0.102,0.051,9.881,0.114,96.8,2025-07-16T18:10:21.610712,83,1
calm,0,82.635,36.119,0.339,0.045,16.934,36.71,-0.022,-0.041,9.796,0.985,96.8,2025-07-16T18:10:22.610712,84,1
calm,0,85.0,30.842,0.352,0.104,16.574,36.66,-0.275,0.047,9.813,0.85,96.2,2025-07-16T18:10:23.610712,85,1
calm,0,68.945,63.409,0.392,0.123,11.015,36.68,-0.008,0.233,9.824,0.649,96.6,2025-07-16T18:10:24.610712,86,1
calm,0,74.229,44.287,0.367,0.022,14.857,36.59,-0.022,-0.021,9.791,0.515,96.3,2025-07-16T18:10:25.610712,87,1
calm,0,64.614,30.11,0.5,0.081,13.145,36.51,0.09,0.1,9.78,0.562,96.3,2025-07-16T18:10:26.610712,88,1
calm,0,74.747,43.024,0.151,0.165,15.599,36.69,0.046,0.107,9.743,0.347,97.8,2025-07-16T18:10:27.610712,89,1
calm,0,67.92,49.231,0.39,0.166,15.602,36.49,0.248,0.042,9.855,0.892,96.7,2025-07-16T18:10:28.610712,90,1
calm,0,70.168,50.548,0.396,0.057,14.796,36.4,0.055,-0.029,9.815,0.625,96.9,2025-07-16T18:10:29.610712,91,1
calm,0,73.21,32.052,0.359,0.132,15.288,36.71,0.245,0.088,9.78,0.125,96.2,2025-07-16T18:10:30.610712,92,1
calm,0,64.87,39.713,0.226,0.04,11.929,36.31,0.064,0.03,9.82,0.851,96.1,2025-07-16T18:10:31.610712,93,1
calm,0,75.432,34.935,0.32,0.098,14.667,36.7,0.038,0.003,9.753,0.102,97.1,2025-07-16T18:10:32.610712,94,1
calm,0,58.552,44.517,0.281,0.218,14.328,36.49,0.032,-0.328,9.866,0.878,97.4,2025-07-16T18:10:33.610712,95,1
calm,0,75.015,35.379,0.319,0.016,12.386,36.37,-0.022,-0.009,9.796,0.306,96.7,2025-07-16T18:10:34.610712,96,1
calm,0,65.472,41.54,0.472,0.093,13.964,36.56,0.03,-0.075,9.836,0.361,97.6,2025-07-16T18:10:35.610712,97,1
calm,0,59.122,64.871,0.282,0.036,10.706,36.45,-0.013,-0.071,9.771,0.962,97.4,2025-07-16T18:10:36.610712,98,1
calm,0,58.997,36.355,0.374,0.136,13.003,36.49,0.027,-0.077,9.752,0.582,97.7,2025-07-16T18:10:37.610712,99,1
calm,0,73.571,46.457,0.317,0.073,13.463,36.55,0.04,-0.063,9.81,0.266,96.7,2025-07-16T18:10:38.610712,100,1
calm,0,79.289,33.824,0.318,0.158,11.523,36.65,-0.032,-0.039,9.834,0.133,96.7,2025-07-16T18:10:39.610712,101,1
calm,0,59.767,31.828,0.457,0.2,13.122,36.54,-0.095,0.216,9.856,0.401,97.0,2025-07-16T18:10:40.610712,102,1
calm,0,75.109,34.04,0.239,0.193,16.413,36.65,-0.097,0.173,9.781,0.847,96.6,2025-07-16T18:10:41.610712,103,1
calm,0,60.278,44.441,0.229,0.141,14.099,36.31,-0.079,-0.005,9.747,0.195,96.7,2025-07-16T18:10:42.610712,104,1
calm,0,61.604,41.8,0.316,0.076,13.545,36.55,0.015,0.13,9.783,0.479,97.4,2025-07-16T18:10:43.610712,105,1
calm,0,72.118,47.797,0.297,0.109,13.646,36.63,-0.007,0.204,9.764,0.619,97.5,2025-07-16T18:10:44.610712,106,1
calm,0,65.843,42.101,0.162,0.143,14.563,36.54,-0.279,0.07,9.808,0.594,98.2,2025-07-16T18:10:45.610712,107,1
calm,0,66.442,40.812,0.194,0.086,10.062,36.5,-0.04,-0.163,9.777,0.354,98.0,2025-07-16T18:10:46.610712,108,1
calm,0,55.0,40.192,0.372,0.099,13.094,36.3,0.139,0.067,9.811,0.473,97.0,2025-07-16T18:10:47.610712,109,1
calm,0,69.161,40.713,0.222,0.115,14.975,36.63,0.158,0.04,9.772,0.815,96.5,2025-07-16T18:10:48.610712,110,1
calm,0,64.19,41.234,0.308,0.048,14.259,36.34,0.027,0.006,9.775,0.174,97.8,2025-07-16T18:10:49.610712,111,1
calm,0,58.935,35.088,0.226,0.111,10.862,36.35,0.082,0.001,9.842,0.95,97.8,2025-07-16T18:10:50.610712,112,1
calm,0,77.295,50.541,0.396,0.127,14.226,36.62,-0.199,0.105,9.69,0.81,96.4,2025-07-16T18:10:51.610712,113,1
calm,0,55.0,48.32,0.404,0.123,17.295,36.3,-0.061,-0.015,9.835,0.291,98.1,2025-07-16T18:10:52.610712,114,1
calm,0,79.724,53.12,0.329,0.117,13.816,36.61,-0.169,0.032,9.851,0.484,96.4,2025-07-16T18:10:53.610712,115,1
calm,0,64.281,40.769,0.227,0.097,14.614,36.35,-0.068,0.138,9.907,0.875,97.5,2025-07-16T18:10:54.610712,116,1
calm,0,80.067,58.395,0.284,0.029,14.366,36.48,0.008,-0.036,9.782,0.376,96.6,2025-07-16T18:10:55.610712,117,1
calm,0,78.714,59.901,0.355,0.12,13.249,36.81,-0.326,-0.216,9.819,0.608,96.2,2025-07-16T18:10:56.610712,118,1
calm,0,71.908,52.05,0.228,0.092,14.088,36.61,-0.074,0.045,9.744,0.385,97.3,2025-07-16T18:10:57.610712,119,1
calm,0,69.379,33.589,0.291,0.078,16.087,36.4,-0.058,0.046,9.845,0.151,97.0,2025-07-16T18:10:58.610712,120,1
calm,0,79.767,40.158,0.417,0.169,11.412,36.69,-0.103,-0.218,9.925,0.38,96.3,2025-07-16T18:10:59.610712,121,1
calm,0,66.504,42.66,0.475,0.092,13.811,36.52,0.019,-0.096,9.89,0.666,97.5,2025-07-16T18:11:00.610712,122,1
calm,0,75.739,51.547,0.324,0.0,15.16,36.62,0.0,0.0,9.8,0.997,97.5,2025-07-16T18:11:01.610712,123,1
calm,0,64.524,31.415,0.5,0.103,11.546,36.59,0.19,0.156,9.77,0.645,97.0,2025-07-16T18:11:02.610712,124,1
calm,0,69.626,52.597,0.175,0.047,13.383,36.48,-0.003,0.004,9.842,0.962,97.4,2025-07-16T18:11:03.610712,125,1
calm,0,67.402,45.381,0.265,0.203,12.999,36.52,-0.028,0.039,9.988,0.176,96.3,2025-07-16T18:11:04.610712,126,1
calm,0,55.0,49.046,0.305,0.094,16.222,36.38,-0.062,-0.103,9.831,0.252,97.5,2025-07-16T18:11:05.610712,127,1
calm,0,68.515,31.979,0.338,0.019,15.094,36.56,-0.012,-0.041,9.789,0.804,96.3,2025-07-16T18:11:06.610712,128,1
calm,0,67.576,51.379,0.211,0.148,14.566,36.46,0.257,0.075,9.855,0.859,97.8,2025-07-16T18:11:07.610712,129,1
calm,0,78.067,58.493,0.307,0.049,13.078,36.65,0.02,-0.074,9.788,0.22,96.8,2025-07-16T18:11:08.610712,130,1
calm,0,55.208,56.565,0.297,0.0,11.965,36.39,0.0,0.0,9.8,0.947,97.8,2025-07-16T18:11:09.610712,131,1
calm,0,66.079,45.266,0.32,0.101,11.288,36.6,0.074,-0.142,9.76,0.691,97.4,2025-07-16T18:11:10.610712,132,1
calm,0,60.146,49.603,0.253,0.108,12.847,36.43,0.072,0.241,9.75,0.315,98.5,2025-07-16T18:11:11.610712,133,1
calm,0,76.881,52.399,0.261,0.077,16.348,36.57,0.026,0.253,9.848,0.816,96.5,2025-07-16T18:11:12.610712,134,1
calm,0,78.867,32.178,0.276,0.16,13.965,36.75,0.109,-0.114,9.726,0.74,96.8,2025-07-16T18:11:13.610712,135,1
calm,0,67.141,64.098,0.301,0.075,11.057,36.18,0.019,-0.046,9.788,0.185,98.0,2025-07-16T18:11:14.610712,136,1
calm,0,71.53,30.0,0.34,0.097,12.33,36.55,-0.053,-0.218,9.744,0.403,96.9,2025-07-16T18:11:15.610712,137,1
calm,0,74.689,42.666,0.421,0.07,13.024,36.62,-0.061,-0.168,9.745,0.461,96.9,2025-07-16T18:11:16.610712,138,1
calm,0,59.601,46.109,0.195,0.164,14.136,36.56,-0.33,0.155,9.814,0.512,97.8,2025-07-16T18:11:17.610712,139,1
calm,0,69.547,33.659,0.15,0.046,14.384,36.54,-0.007,-0.099,9.823,0.866,97.2,2025-07-16T18:11:18.610712,140,1
calm,0,72.045,51.149,0.33,0.169,12.531,36.87,0.177,-0.054,9.766,0.627,96.7,2025-07-16T18:11:19.610712,141,1
calm,0,69.109,60.794,0.311,0.043,17.46,36.69,0.002,0.031,9.785,0.865,97.0,2025-07-16T18:11:20.610712,142,1
calm,0,55.974,38.618,0.415,0.067,10.541,36.24,0.056,0.034,9.724,0.623,96.7,2025-07-16T18:11:21.610712,143,1
calm,0,73.766,56.091,0.318,0.075,11.484,36.7,0.136,0.054,9.793,0.809,96.3,2025-07-16T18:11:22.610712,144,1
calm,0,56.793,45.04,0.354,0.134,14.584,36.48,-0.216,0.13,9.78,0.526,96.3,2025-07-16T18:11:23.610712,145,1
calm,0,72.962,57.814,0.21,0.034,14.426,36.58,-0.032,0.01,9.811,0.505,97.3,2025-07-16T18:11:24.610712,146,1
calm,0,70.298,52.264,0.37,0.162,14.527,36.6,-0.256,-0.234,9.847,0.414,96.5,2025-07-16T18:11:25.610712,147,1
calm,0,77.394,56.785,0.383,0.165,15.996,36.65,0.018,-0.162,9.773,0.719,97.0,2025-07-16T18:11:26.610712,148,1
calm,0,75.458,50.125,0.248,0.065,14.628,36.65,-0.02,0.023,9.83,0.465,97.0,2025-07-16T18:11:27.610712,149,1
calm,0,61.636,42.325,0.379,0.177,17.562,36.59,-0.065,-0.187,9.73,0.879,96.4,2025-07-16T18:11:28.610712,150,1
calm,0,75.401,30.105,0.285,0.068,16.931,36.85,0.038,-0.052,9.804,0.336,96.8,2025-07-16T18:11:29.610712,151,1
calm,0,59.342,48.434,0.235,0.031,11.812,36.38,0.005,0.025,9.8,0.898,97.1,2025-07-16T18:11:30.610712,152,1
calm,0,80.431,41.754,0.307,0.164,14.634,36.62,-0.158,0.161,9.953,0.358,97.2,2025-07-16T18:11:31.610712,153,1
calm,0,63.57,49.606,0.29,0.142,11.954,36.61,-0.117,0.071,9.803,0.888,97.6,2025-07-16T18:11:32.610712,154,1
calm,0,57.842,60.514,0.302,0.119,16.7,36.52,-0.08,0.154,9.68,0.794,98.2,2025-07-16T18:11:33.610712,155,1
calm,0,82.976,30.0,0.246,0.076,10.532,36.68,-0.066,-0.041,9.755,0.349,95.8,2025-07-16T18:11:34.610712,156,1
calm,0,59.624,40.305,0.412,0.131,15.508,36.5,0.006,0.044,9.836,0.369,96.7,2025-07-16T18:11:35.610712,157,1
calm,0,72.01,35.331,0.3,0.085,15.757,36.6,-0.048,0.026,9.882,0.41,97.3,2025-07-16T18:11:36.610712,158,1
calm,0,62.752,39.306,0.254,0.101,12.201,36.42,0.125,-0.099,9.761,0.885,97.7,2025-07-16T18:11:37.610712,159,1
calm,0,75.091,45.868,0.265,0.127,10.52,36.47,-0.093,0.175,9.826,0.93,96.6,2025-07-16T18:11:38.610712,160,1
calm,0,64.022,43.569,0.311,0.092,15.382,36.61,-0.262,-0.056,9.828,0.589,96.6,2025-07-16T18:11:39.610712,161,1
calm,0,72.575,50.008,0.207,0.068,16.018,36.65,-0.088,0.102,9.827,0.424,97.5,2025-07-16T18:11:40.610712,162,1
calm,0,69.724,39.681,0.391,0.121,14.098,36.74,-0.044,-0.004,9.857,0.443,96.4,2025-07-16T18:11:41.610712,163,1
calm,0,73.287,37.589,0.217,0.136,11.932,36.79,0.03,0.166,9.694,0.554,97.8,2025-07-16T18:11:42.610712,164,1
calm,0,71.396,30.011,0.309,0.13,15.254,36.54,0.038,0.107,9.73,0.444,97.5,2025-07-16T18:11:43.610712,165,1
calm,0,68.495,38.486,0.215,0.101,12.069,36.63,-0.013,0.192,9.824,0.615,96.7,2025-07-16T18:11:44.610712,166,1
calm,0,70.705,61.959,0.415,0.139,17.668,36.67,-0.172,0.044,9.747,0.582,97.8,2025-07-16T18:11:45.610712,167,1
calm,0,63.803,43.88,0.262,0.142,16.704,36.52,-0.094,-0.004,9.838,0.944,97.4,2025-07-16T18:11:46.610712,168,1
calm,0,55.0,32.798,0.397,0.104,11.553,36.34,0.114,-0.01,9.808,0.785,97.7,2025-07-16T18:11:47.610712,169,1
calm,0,73.912,41.888,0.321,0.141,13.445,36.59,-0.45,0.118,9.702,0.389,96.6,2025-07-16T18:11:48.610712,170,1
calm,0,59.227,35.694,0.258,0.123,18.0,36.66,-0.123,-0.021,9.825,0.964,97.3,2025-07-16T18:11:49.610712,171,1
calm,0,81.58,46.721,0.313,0.042,11.919,36.61,-0.01,0.012,9.803,0.155,96.1,2025-07-16T18:11:50.610712,172,1
calm,0,74.303,42.138,0.243,0.107,15.7,36.4,-0.126,0.184,9.789,0.811,96.7,2025-07-16T18:11:51.610712,173,1
calm,0,77.914,36.368,0.292,0.052,16.931,36.56,0.028,0.008,9.769,0.665,96.0,2025-07-16T18:11:52.610712,174,1
calm,0,71.428,50.959,0.473,0.088,13.098,36.58,-0.047,0.145,9.773,0.503,96.8,2025-07-16T18:11:53.610712,175,1
calm,0,63.375,43.078,0.244,0.077,12.899,36.43,-0.032,0.07,9.774,0.514,97.2,2025-07-16T18:11:54.610712,176,1
calm,0,69.61,37.039,0.244,0.129,13.998,36.57,0.046,0.185,9.857,0.718,97.3,2025-07-16T18:11:55.610712,177,1
calm,0,61.43,52.927,0.306,0.155,13.225,36.7,-0.055,0.125,9.855,0.939,97.8,2025-07-16T18:11:56.610712,178,1
calm,0,83.187,47.105,0.299,0.156,14.551,36.59,0.211,0.298,9.704,0.341,96.6,2025-07-16T18:11:57.610712,179,1
focused,1,77.725,46.983,0.379,0.075,14.96,36.779,0.026,0.048,9.817,0.234,96.7,2025-07-16T18:11:58.610712,180,1
focused,1,79.766,36.112,0.38,0.033,16.458,36.65,-0.024,0.007,9.792,0.776,96.5,2025-07-16T18:11:59.610712,181,1
focused,1,84.898,46.117,0.394,0.064,13.596,36.76,0.068,0.027,9.82,0.719,95.5,2025-07-16T18:12:00.610712,182,1
focused,1,80.459,52.804,0.424,0.011,14.351,36.67,0.017,-0.006,9.81,0.713,97.3,2025-07-16T18:12:01.610712,183,1
focused,1,77.034,44.12,0.388,0.049,16.052,36.58,0.012,-0.014,9.793,0.388,95.8,2025-07-16T18:12:02.610712,184,1
focused,1,81.297,57.717,0.447,0.044,16.031,36.64,-0.036,-0.026,9.793,0.593,95.6,2025-07-16T18:12:03.610712,185,1
focused,1,81.085,58.69,0.511,0.002,16.817,36.62,-0.002,0.002,9.801,0.442,95.8,2025-07-16T18:12:04.610712,186,1
focused,1,65.0,35.0,0.431,0.051,16.926,36.32,-0.057,0.012,9.815,0.663,97.2,2025-07-16T18:12:05.610712,187,1
focused,1,73.537,48.303,0.37,0.047,14.03,36.45,-0.008,0.092,9.803,0.846,97.1,2025-07-16T18:12:06.610712,188,1
focused,1,79.029,35.507,0.486,0.031,13.717,36.69,-0.017,-0.0,9.768,0.667,96.7,2025-07-16T18:12:07.610712,189,1
focused,1,66.454,47.763,0.286,0.059,14.422,36.66,-0.025,-0.032,9.845,0.851,97.8,2025-07-16T18:12:08.610712,190,1
focused,1,75.379,51.723,0.407,0.066,15.716,36.47,-0.044,0.011,9.77,0.754,97.1,2025-07-16T18:12:09.610712,191,1
focused,1,72.3,66.047,0.47,0.032,14.268,36.32,-0.027,0.128,9.813,0.29,96.6,2025-07-16T18:12:10.610712,192,1
focused,1,77.034,51.967,0.354,0.056,15.3,36.69,0.002,0.096,9.782,0.256,97.1,2025-07-16T18:12:11.610712,193,1
focused,1,77.226,38.805,0.334,0.018,12.0,36.49,-0.003,-0.007,9.806,0.629,96.6,2025-07-16T18:12:12.610712,194,1
focused,1,87.544,44.771,0.258,0.056,13.77,36.92,-0.004,-0.013,9.838,0.396,97.0,2025-07-16T18:12:13.610712,195,1
focused,1,71.251,39.036,0.372,0.029,12.0,36.43,0.052,-0.026,9.79,0.327,97.2,2025-07-16T18:12:14.610712,196,1
focused,1,68.353,50.97,0.344,0.041,13.123,36.47,-0.072,-0.054,9.813,0.867,96.7,2025-07-16T18:12:15.610712,197,1
focused,1,71.942,67.732,0.446,0.048,15.611,36.6,0.015,0.003,9.802,0.75,97.1,2025-07-16T18:12:16.610712,198,1
focused,1,71.845,47.598,0.484,0.054,12.975,36.58,-0.004,0.04,9.762,0.979,96.6,2025-07-16T18:12:17.610712,199,1
focused,1,70.89,53.205,0.48,0.017,14.257,36.75,-0.009,0.028,9.802,0.994,97.1,2025-07-16T18:12:18.610712,200,1
focused,1,83.265,48.976,0.456,0.038,12.238,36.58,0.011,-0.042,9.838,0.345,95.9,2025-07-16T18:12:19.610712,201,1
focused,1,67.41,49.393,0.409,0.038,16.028,36.33,0.022,0.02,9.793,0.458,96.5,2025-07-16T18:12:20.610712,202,1
focused,1,67.649,43.033,0.345,0.066,16.978,36.62,-0.05,0.019,9.825,0.281,97.4,2025-07-16T18:12:21.610712,203,1
focused,1,72.224,37.734,0.5,0.056,13.351,36.7,-0.032,-0.005,9.833,0.868,96.5,2025-07-16T18:12:22.610712,204,1
focused,1,76.241,49.21,0.364,0.038,14.879,36.47,-0.015,-0.032,9.792,0.935,97.0,2025-07-16T18:12:23.610712,205,1
focused,1,75.057,54.277,0.31,0.06,13.808,36.48,-0.029,-0.041,9.852,0.532,97.1,2025-07-16T18:12:24.610712,206,1
focused,1,71.772,54.291,0.392,0.031,14.983,36.31,-0.004,0.005,9.827,0.726,97.0,2025-07-16T18:12:25.610712,207,1
focused,1,90.0,43.412,0.55,0.076,15.158,36.76,-0.002,-0.059,9.782,0.958,97.0,2025-07-16T18:12:26.610712,208,1
focused,1,82.708,47.472,0.454,0.038,16.295,36.87,-0.012,0.023,9.785,0.522,95.7,2025-07-16T18:12:27.610712,209,1
focused,1,74.168,47.151,0.404,0.057,15.396,36.79,-0.01,-0.025,9.828,0.504,97.0,2025-07-16T18:12:28.610712,210,1
focused,1,67.658,43.189,0.327,0.024,15.825,36.24,0.013,0.024,9.816,0.122,97.5,2025-07-16T18:12:29.610712,211,1
focused,1,79.787,63.9,0.396,0.049,14.881,36.53,0.025,-0.078,9.778,0.934,96.3,2025-07-16T18:12:30.610712,212,1
focused,1,85.131,60.362,0.461,0.083,17.022,36.57,-0.004,0.06,9.726,0.547,96.2,2025-07-16T18:12:31.610712,213,1
focused,1,71.607,44.255,0.416,0.053,13.711,36.61,0.068,0.004,9.8,0.654,96.3,2025-07-16T18:12:32.610712,214,1
focused,1,77.874,50.455,0.439,0.045,13.486,36.71,0.042,-0.143,9.815,0.114,96.3,2025-07-16T18:12:33.610712,215,1
focused,1,73.485,41.844,0.466,0.044,17.245,36.54,-0.082,-0.09,9.811,0.413,97.8,2025-07-16T18:12:34.610712,216,1
focused,1,79.857,46.134,0.473,0.045,15.783,36.68,-0.014,-0.017,9.797,0.978,96.3,2025-07-16T18:12:35.610712,217,1
focused,1,78.687,70.0,0.329,0.017,15.292,36.56,-0.044,-0.002,9.818,0.667,96.4,2025-07-16T18:12:36.610712,218,1
focused,1,76.929,59.727,0.336,0.031,14.046,36.68,0.022,0.019,9.805,0.645,97.1,2025-07-16T18:12:37.610712,219,1
focused,1,65.0,51.769,0.436,0.056,14.956,36.59,-0.044,0.111,9.782,0.914,96.4,2025-07-16T18:12:38.610712,220,1
focused,1,78.228,57.64,0.381,0.077,14.562,36.52,-0.099,0.092,9.805,0.271,96.3,2025-07-16T18:12:39.610712,221,1
focused,1,83.702,46.125,0.356,0.059,12.838,36.55,0.027,0.113,9.745,0.886,97.3,2025-07-16T18:12:40.610712,222,1
focused,1,67.413,52.894,0.437,0.048,14.217,36.47,0.13,-0.071,9.811,0.259,96.9,2025-07-16T18:12:41.610712,223,1
focused,1,86.716,51.223,0.399,0.049,13.929,36.66,-0.062,-0.063,9.832,0.126,97.2,2025-07-16T18:12:42.610712,224,1
focused,1,82.885,41.335,0.336,0.06,14.966,36.64,0.021,0.004,9.845,0.22,96.4,2025-07-16T18:12:43.610712,225,1
focused,1,77.426,53.656,0.366,0.071,16.334,36.55,0.054,0.014,9.784,0.94,96.6,2025-07-16T18:12:44.610712,226,1
focused,1,76.941,57.266,0.377,0.031,14.41,36.47,-0.031,-0.023,9.815,0.4,97.2,2025-07-16T18:12:45.610712,227,1
focused,1,89.191,56.447,0.369,0.068,14.663,36.89,0.039,-0.012,9.724,0.798,96.5,2025-07-16T18:12:46.610712,228,1
focused,1,78.405,59.611,0.354,0.062,16.307,36.75,0.11,-0.014,9.77,0.199,96.7,2025-07-16T18:12:47.610712,229,1
focused,1,72.868,48.161,0.498,0.058,14.657,36.62,-0.077,-0.053,9.842,0.561,96.3,2025-07-16T18:12:48.610712,230,1
focused,1,79.426,59.453,0.441,0.041,13.671,36.67,-0.041,-0.071,9.809,0.666,97.1,2025-07-16T18:12:49.610712,231,1
focused,1,83.667,51.573,0.416,0.06,14.66,36.56,0.013,-0.112,9.793,0.958,96.8,2025-07-16T18:12:50.610712,232,1
focused,1,86.52,49.776,0.36,0.062,16.347,36.73,0.061,-0.139,9.84,0.994,95.7,2025-07-16T18:12:51.610712,233,1
focused,1,77.438,55.133,0.384,0.052,14.877,36.61,-0.073,0.117,9.765,0.372,97.1,2025-07-16T18:12:52.610712,234,1
focused,1,72.961,61.078,0.388,0.06,16.596,36.49,-0.077,0.011,9.829,0.705,97.0,2025-07-16T18:12:53.610712,235,1
focused,1,71.917,41.607,0.368,0.035,13.151,36.58,0.026,-0.014,9.802,0.773,97.1,2025-07-16T18:12:54.610712,236,1
focused,1,68.75,45.19,0.442,0.02,15.905,36.49,-0.033,-0.011,9.786,0.365,97.2,2025-07-16T18:12:55.610712,237,1
focused,1,72.053,50.505,0.328,0.027,13.933,36.55,-0.017,0.023,9.814,0.364,96.8,2025-07-16T18:12:56.610712,238,1
focused,1,83.289,41.354,0.303,0.043,15.652,36.54,0.01,0.013,9.826,0.214,96.5,2025-07-16T18:12:57.610712,239,1
focused,1,71.714,65.681,0.312,0.033,17.691,36.52,0.005,0.006,9.793,0.642,96.3,2025-07-16T18:12:58.610712,240,1
focused,1,65.04,48.187,0.369,0.068,12.0,36.36,0.034,0.123,9.748,0.347,97.3,2025-07-16T18:12:59.610712,241,1
focused,1,66.907,67.197,0.363,0.0,14.148,36.51,0.0,0.0,9.8,0.864,97.0,2025-07-16T18:13:00.610712,242,1
focused,1,79.959,68.324,0.389,0.01,14.71,36.9,0.005,0.013,9.797,0.552,96.8,2025-07-16T18:13:01.610712,243,1
focused,1,76.892,53.368,0.363,0.097,16.131,36.72,-0.194,-0.038,9.819,0.768,96.7,2025-07-16T18:13:02.610712,244,1
focused,1,82.737,35.0,0.374,0.053,13.713,36.61,0.043,0.073,9.805,0.825,96.5,2025-07-16T18:13:03.610712,245,1
focused,1,71.219,63.678,0.375,0.037,14.189,36.41,-0.033,0.001,9.803,0.7,95.9,2025-07-16T18:13:04.610712,246,1
focused,1,70.197,46.353,0.467,0.051,14.051,36.63,0.037,0.063,9.779,0.729,96.1,2025-07-16T18:13:05.610712,247,1
focused,1,73.311,35.0,0.33,0.03,15.695,36.73,0.006,-0.021,9.822,0.792,96.8,2025-07-16T18:13:06.610712,248,1
focused,1,77.741,46.985,0.482,0.036,14.754,36.82,-0.037,0.024,9.807,0.238,96.7,2025-07-16T18:13:07.610712,249,1
focused,1,77.029,63.554,0.403,0.067,16.935,36.57,-0.045,0.017,9.708,0.316,96.9,2025-07-16T18:13:08.610712,250,1
focused,1,79.26,65.824,0.383,0.075,15.14,36.59,0.061,-0.055,9.765,0.756,97.1,2025-07-16T18:13:09.610712,251,1
focused,1,81.529,57.688,0.437,0.07,13.033,36.56,-0.021,-0.058,9.777,0.483,96.6,2025-07-16T18:13:10.610712,252,1
focused,1,84.425,43.857,0.369,0.061,12.876,36.76,-0.041,-0.015,9.751,0.29,96.9,2025-07-16T18:13:11.610712,253,1
focused,1,69.851,44.534,0.435,0.015,17.287,36.47,0.003,0.018,9.796,0.418,97.0,2025-07-16T18:13:12.610712,254,1
focused,1,78.293,51.84,0.294,0.075,16.633,36.45,0.008,-0.026,9.805,0.558,97.2,2025-07-16T18:13:13.610712,255,1
focused,1,65.0,47.782,0.448,0.095,15.582,36.63,-0.014,0.048,9.761,0.571,97.4,2025-07-16T18:13:14.610712,256,1
focused,1,88.887,52.377,0.437,0.021,14.054,36.89,0.0,-0.004,9.797,0.341,96.0,2025-07-16T18:13:15.610712,257,1
focused,1,70.141,45.191,0.337,0.033,13.413,36.66,-0.014,-0.043,9.812,0.235,97.2,2025-07-16T18:13:16.610712,258,1
focused,1,81.034,52.852,0.346,0.017,15.947,36.53,0.009,-0.024,9.796,0.105,97.3,2025-07-16T18:13:17.610712,259,1
focused,1,73.282,52.008,0.384,0.07,15.976,36.68,0.007,-0.021,9.792,0.759,97.2,2025-07-16T18:13:18.610712,260,1
focused,1,88.601,39.35,0.317,0.0,15.447,36.61,0.0,0.0,9.8,0.583,95.7,2025-07-16T18:13:19.610712,261,1
focused,1,77.116,56.138,0.403,0.047,12.173,36.56,-0.05,0.007,9.839,0.83,96.6,2025-07-16T18:13:20.610712,262,1
focused,1,74.282,39.69,0.3,0.05,17.11,36.57,0.033,0.082,9.733,0.772,96.4,2025-07-16T18:13:21.610712,263,1
focused,1,74.7,57.006,0.321,0.059,15.71,36.72,-0.085,0.075,9.831,0.295,97.5,2025-07-16T18:13:22.610712,264,1
focused,1,82.322,45.47,0.336,0.104,17.426,36.79,-0.18,-0.158,9.807,0.556,96.5,2025-07-16T18:13:23.610712,265,1
focused,1,68.897,46.014,0.469,0.049,12.439,36.41,-0.029,0.025,9.827,0.559,96.4,2025-07-16T18:13:24.610712,266,1
focused,1,75.156,59.071,0.364,0.086,14.805,36.62,0.002,0.047,9.775,0.333,96.5,2025-07-16T18:13:25.610712,267,1
focused,1,76.755,55.111,0.41,0.041,14.032,36.42,-0.006,0.024,9.851,0.835,96.9,2025-07-16T18:13:26.610712,268,1
focused,1,80.412,37.856,0.318,0.043,15.227,36.49,0.067,0.1,9.786,0.895,96.3,2025-07-16T18:13:27.610712,269,1
focused,1,81.932,36.976,0.284,0.108,14.746,36.71,-0.084,-0.04,9.795,0.225,96.4,2025-07-16T18:13:28.610712,270,1
focused,1,71.108,56.507,0.346,0.051,14.053,36.45,-0.0,-0.072,9.797,0.717,96.7,2025-07-16T18:13:29.610712,271,1
focused,1,67.28,43.71,0.418,0.037,15.947,36.61,0.034,-0.007,9.753,0.2,97.0,2025-07-16T18:13:30.610712,272,1
focused,1,73.739,37.102,0.494,0.082,16.25,36.67,-0.009,-0.129,9.906,0.41,95.3,2025-07-16T18:13:31.610712,273,1
focused,1,73.619,46.157,0.462,0.063,13.614,36.66,0.036,-0.052,9.777,0.154,97.0,2025-07-16T18:13:32.610712,274,1
focused,1,76.203,41.767,0.37,0.038,13.697,36.77,-0.072,-0.034,9.806,0.323,97.4,2025-07-16T18:13:33.610712,275,1
focused,1,79.35,39.627,0.39,0.052,15.323,36.52,0.055,-0.087,9.786,0.216,95.8,2025-07-16T18:13:34.610712,276,1
focused,1,71.182,35.0,0.461,0.047,14.574,36.44,-0.015,0.068,9.843,0.377,97.6,2025-07-16T18:13:35.610712,277,1
focused,1,71.272,44.578,0.319,0.036,15.058,36.46,-0.016,-0.029,9.824,0.841,97.1,2025-07-16T18:13:36.610712,278,1
focused,1,77.18,40.697,0.295,0.065,15.878,36.5,0.049,0.084,9.796,0.564,97.2,2025-07-16T18:13:37.610712,279,1
focused,1,68.12,35.0,0.352,0.086,16.94,36.62,-0.003,0.109,9.772,0.307,97.3,2025-07-16T18:13:38.610712,280,1
focused,1,73.402,60.222,0.268,0.06,16.264,36.49,0.114,-0.014,9.779,0.597,97.1,2025-07-16T18:13:39.610712,281,1
focused,1,76.398,57.05,0.279,0.018,14.214,36.58,-0.002,0.01,9.802,0.118,96.9,2025-07-16T18:13:40.610712,282,1
focused,1,71.594,46.034,0.376,0.053,16.894,36.57,0.004,-0.038,9.772,0.395,96.2,2025-07-16T18:13:41.610712,283,1
focused,1,69.684,68.738,0.341,0.05,14.357,36.35,0.059,-0.078,9.802,0.817,96.6,2025-07-16T18:13:42.610712,284,1
focused,1,73.193,43.24,0.393,0.027,16.252,36.56,-0.023,0.025,9.83,0.158,97.7,2025-07-16T18:13:43.610712,285,1
focused,1,72.535,53.216,0.436,0.032,14.593,36.62,-0.021,-0.022,9.773,0.412,96.9,2025-07-16T18:13:44.610712,286,1
focused,1,75.225,46.947,0.316,0.033,14.579,36.63,-0.021,-0.045,9.823,0.353,98.0,2025-07-16T18:13:45.610712,287,1
focused,1,68.887,38.982,0.483,0.008,15.687,36.58,0.005,-0.005,9.807,0.897,96.3,2025-07-16T18:13:46.610712,288,1
focused,1,78.549,53.626,0.442,0.048,14.127,36.56,0.086,-0.05,9.798,0.3,96.5,2025-07-16T18:13:47.610712,289,1
focused,1,65.0,49.541,0.309,0.009,15.679,36.28,-0.006,-0.009,9.799,0.331,98.1,2025-07-16T18:13:48.610712,290,1
focused,1,72.205,46.933,0.378,0.052,15.844,36.37,-0.007,0.002,9.805,0.678,97.3,2025-07-16T18:13:49.610712,291,1
focused,1,77.26,51.759,0.333,0.013,13.026,36.44,0.016,0.018,9.802,0.601,96.8,2025-07-16T18:13:50.610712,292,1
focused,1,75.601,61.959,0.382,0.044,15.074,36.63,-0.019,-0.054,9.754,0.611,96.5,2025-07-16T18:13:51.610712,293,1
focused,1,71.206,57.565,0.454,0.034,15.311,36.53,0.011,-0.014,9.789,0.839,96.8,2025-07-16T18:13:52.610712,294,1
focused,1,82.332,47.892,0.481,0.094,14.308,36.64,-0.177,-0.15,9.844,0.606,96.2,2025-07-16T18:13:53.610712,295,1
focused,1,70.577,60.737,0.388,0.053,13.9,36.6,0.096,-0.059,9.803,0.159,97.1,2025-07-16T18:13:54.610712,296,1
focused,1,65.355,68.218,0.498,0.042,17.209,36.35,-0.005,-0.016,9.821,0.128,96.9,2025-07-16T18:13:55.610712,297,1
focused,1,75.581,54.225,0.377,0.047,17.66,36.49,-0.116,-0.012,9.804,0.706,97.8,2025-07-16T18:13:56.610712,298,1
focused,1,83.866,36.194,0.252,0.05,14.897,36.7,-0.033,0.021,9.836,0.572,96.7,2025-07-16T18:13:57.610712,299,1
calm,0,60.419,49.125,0.41,0.06,12.964,36.45,-0.007,0.004,9.834,0.889,97.1,2025-07-16T18:08:58.660019,0,2
calm,0,71.947,44.655,0.361,0.067,11.203,36.72,0.027,0.059,9.824,0.926,97.2,2025-07-16T18:08:59.660019,1,2
calm,0,85.0,36.304,0.449,0.08,12.975,36.7,0.194,-0.043,9.772,0.616,96.8,2025-07-16T18:09:00.660019,2,2
calm,0,64.235,38.73,0.247,0.065,11.066,36.48,-0.083,0.012,9.806,0.987,97.1,2025-07-16T18:09:01.660019,3,2
calm,0,84.791,45.006,0.43,0.051,15.915,36.73,-0.023,-0.035,9.832,0.438,96.9,2025-07-16T18:09:02.660019,4,2
calm,0,71.029,46.899,0.226,0.05,14.073,36.52,0.032,0.04,9.832,0.348,97.1,2025-07-16T18:09:03.660019,5,2
calm,0,66.7,52.974,0.32,0.126,12.381,36.46,-0.043,-0.091,9.759,0.689,95.9,2025-07-16T18:09:04.660019,6,2
calm,0,78.35,58.69,0.385,0.157,11.517,36.68,-0.035,-0.107,9.701,0.913,96.8,2025-07-16T18:09:05.660019,7,2
calm,0,74.359,50.508,0.366,0.042,12.307,36.66,0.001,0.027,9.795,0.993,96.8,2025-07-16T18:09:06.660019,8,2
calm,0,66.287,44.157,0.236,0.0,13.785,36.4,0.0,0.0,9.8,0.5,97.6,2025-07-16T18:09:07.660019,9,2
calm,0,83.195,47.517,0.28,0.133,15.833,36.63,-0.353,0.0,9.818,0.893,96.5,2025-07-16T18:09:08.660019,10,2
calm,0,56.889,36.452,0.425,0.173,12.483,36.54,-0.03,0.164,9.749,0.621,97.4,2025-07-16T18:09:09.660019,11,2
calm,0,58.885,31.921,0.236,0.146,14.732,36.48,-0.059,-0.205,9.843,0.152,96.9,2025-07-16T18:09:10.660019,12,2
calm,0,70.459,35.049,0.315,0.134,10.504,36.37,0.142,-0.081,9.774,0.227,97.2,2025-07-16T18:09:11.660019,13,2
calm,0,74.327,44.716,0.373,0.124,11.235,36.69,-0.088,0.17,9.825,0.821,96.0,2025-07-16T18:09:12.660019,14,2
calm,0,75.171,59.721,0.179,0.031,15.549,36.69,-0.048,-0.03,9.815,0.232,97.1,2025-07-16T18:09:13.660019,15,2
calm,0,73.234,38.568,0.445,0.058,12.907,36.6,0.068,-0.003,9.846,0.97,96.8,2025-07-16T18:09:14.660019,16,2
calm,0,84.878,44.115,0.393,0.119,15.214,36.76,-0.033,-0.001,9.798,0.466,96.4,2025-07-16T18:09:15.660019,17,2
calm,0,81.187,40.549,0.38,0.061,11.884,36.95,-0.037,0.056,9.813,0.321,96.6,2025-07-16T18:09:16.660019,18,2
calm,0,65.338,47.341,0.2,0.057,14.2,36.47,0.14,-0.078,9.763,0.476,98.1,2025-07-16T18:09:17.660019,19,2
calm,0,69.183,55.613,0.161,0.107,14.734,36.55,0.017,-0.09,9.893,0.954,98.0,2025-07-16T18:09:18.660019,20,2
calm,0,74.532,55.408,0.384,0.155,15.633,36.52,0.11,-0.042,9.703,0.329,97.4,2025-07-16T18:09:19.660019,21,2
calm,0,61.77,63.773,0.291,0.039,11.902,36.54,-0.039,-0.036,9.817,0.353,97.1,2025-07-16T18:09:20.660019,22,2
calm,0,58.979,40.494,0.222,0.131,11.861,36.36,-0.017,-0.063,9.774,0.409,97.8,2025-07-16T18:09:21.660019,23,2
calm,0,71.761,59.789,0.301,0.099,12.363,36.41,-0.021,-0.173,9.826,0.886,97.6,2025-07-16T18:09:22.660019,24,2
calm,0,75.367,35.784,0.327,0.12,14.906,36.53,-0.086,0.017,9.774,0.668,96.6,2025-07-16T18:09:23.660019,25,2
calm,0,84.202,50.431,0.266,0.111,13.623,36.8,-0.086,-0.022,9.76,0.621,97.1,2025-07-16T18:09:24.660019,26,2
calm,0,70.725,30.0,0.185,0.051,11.412,36.62,-0.117,-0.013,9.774,0.838,98.0,2025-07-16T18:09:25.660019,27,2
calm,0,70.568,50.327,0.238,0.122,14.12,36.7,0.029,-0.21,9.887,0.918,96.7,2025-07-16T18:09:26.660019,28,2
calm,0,71.461,38.444,0.202,0.054,14.194,36.68,-0.066,-0.125,9.767,0.479,96.8,2025-07-16T18:09:27.660019,29,2
calm,0,79.541,56.882,0.433,0.137,17.286,36.76,-0.21,-0.313,9.844,0.932,96.8,2025-07-16T18:09:28.660019,30,2
calm,0,73.997,65.0,0.344,0.0,13.291,36.31,0.0,0.0,9.8,0.11,96.1,2025-07-16T18:09:29.660019,31,2
calm,0,61.48,56.243,0.21,0.143,14.968,36.57,-0.043,0.025,9.78,0.148,97.6,2025-07-16T18:09:30.660019,32,2
calm,0,62.294,30.054,0.428,0.084,14.246,36.6,0.061,0.081,9.875,0.188,96.5,2025-07-16T18:09:31.660019,33,2
calm,0,68.627,41.323,0.303,0.131,12.536,36.63,-0.139,-0.152,9.714,0.967,97.6,2025-07-16T18:09:32.660019,34,2
calm,0,67.131,39.486,0.311,0.082,16.604,36.59,0.061,0.009,9.736,0.15,97.0,2025-07-16T18:09:33.660019,35,2
calm,0,71.202,38.663,0.246,0.096,12.573,36.71,-0.113,0.187,9.771,0.899,97.4,2025-07-16T18:09:34.660019,36,2
calm,0,81.164,61.182,0.157,0.002,14.191,36.59,0.005,-0.001,9.798,0.996,97.1,2025-07-16T18:09:35.660019,37,2
calm,0,69.511,41.997,0.285,0.059,14.333,36.62,0.001,-0.028,9.786,0.99,96.6,2025-07-16T18:09:36.660019,38,2
calm,0,60.566,50.273,0.318,0.078,13.073,36.15,-0.064,0.068,9.82,0.428,97.3,2025-07-16T18:09:37.660019,39,2
calm,0,81.825,44.224,0.371,0.082,14.702,36.41,0.071,0.09,9.833,0.83,96.0,2025-07-16T18:09:38.660019,40,2
calm,0,55.606,31.098,0.476,0.004,16.176,36.29,0.001,-0.003,9.799,0.423,97.3,2025-07-16T18:09:39.660019,41,2
calm,0,74.459,50.701,0.32,0.124,15.287,36.6,0.115,-0.142,9.885,0.186,96.4,2025-07-16T18:09:40.660019,42,2
calm,0,56.241,39.366,0.386,0.099,13.007,36.54,0.062,0.039,9.812,0.865,97.2,2025-07-16T18:09:41.660019,43,2
calm,0,71.401,43.517,0.203,0.094,12.648,36.71,0.125,0.02,9.769,0.425,97.2,2025-07-16T18:09:42.660019,44,2
calm,0,67.071,44.369,0.352,0.03,17.347,36.41,-0.028,-0.016,9.78,0.789,97.9,2025-07-16T18:09:43.660019,45,2
calm,0,71.514,43.537,0.406,0.046,14.285,36.46,-0.064,-0.011,9.843,0.96,97.2,2025-07-16T18:09:44.660019,46,2
calm,0,64.264,44.832,0.353,0.073,13.34,36.46,0.097,-0.019,9.793,0.21,97.2,2025-07-16T18:09:45.660019,47,2
calm,0,81.216,47.719,0.276,0.009,11.464,36.48,0.018,-0.005,9.796,0.308,97.3,2025-07-16T18:09:46.660019,48,2
calm,0,77.369,40.717,0.275,0.152,12.255,36.8,0.254,0.142,9.772,0.924,96.6,2025-07-16T18:09:47.660019,49,2
calm,0,66.476,61.158,0.225,0.025,14.293,36.4,-0.033,0.014,9.822,0.907,96.7,2025-07-16T18:09:48.660019,50,2
calm,0,65.939,54.133,0.309,0.07,16.041,36.5,-0.091,-0.06,9.834,0.21,96.6,2025-07-16T18:09:49.660019,51,2
calm,0,73.066,50.532,0.289,0.18,13.085,36.64,-0.034,-0.311,9.799,0.992,97.4,2025-07-16T18:09:50.660019,52,2
calm,0,77.82,30.861,0.437,0.136,14.277,36.69,0.119,-0.14,9.951,0.829,96.7,2025-07-16T18:09:51.660019,53,2
calm,0,82.948,42.657,0.155,0.011,11.38,36.62,-0.017,-0.013,9.802,0.875,96.5,2025-07-16T18:09:52.660019,54,2
calm,0,63.065,55.907,0.439,0.196,14.635,36.63,0.125,0.033,9.803,0.353,97.5,2025-07-16T18:09:53.660019,55,2
calm,0,61.084,50.097,0.244,0.089,11.968,36.53,0.025,0.015,9.794,0.531,97.5,2025-07-16T18:09:54.660019,56,2
calm,0,70.935,30.138,0.266,0.01,11.948,36.6,-0.001,-0.017,9.809,0.139,96.3,2025-07-16T18:09:55.660019,57,2
calm,0,85.0,40.637,0.383,0.074,10.603,36.58,0.026,-0.079,9.814,0.532,96.8,2025-07-16T18:09:56.660019,58,2
calm,0,62.787,41.357,0.263,0.162,14.987,36.52,-0.053,-0.026,9.901,0.486,97.3,2025-07-16T18:09:57.660019,59,2
calm,0,66.566,30.362,0.15,0.127,10.0,36.59,-0.064,-0.057,9.714,0.593,97.3,2025-07-16T18:09:58.660019,60,2
calm,0,66.976,35.029,0.212,0.127,12.45,36.56,-0.044,-0.089,9.758,0.599,97.7,2025-07-16T18:09:59.660019,61,2
calm,0,58.923,32.668,0.267,0.146,13.51,36.71,-0.075,0.219,9.717,0.333,97.6,2025-07-16T18:10:00.660019,62,2
calm,0,65.361,34.701,0.179,0.128,13.343,36.4,-0.155,-0.006,9.666,0.585,97.4,2025-07-16T18:10:01.660019,63,2
calm,0,65.384,52.768,0.341,0.098,14.538,36.36,0.089,0.034,9.789,0.846,96.0,2025-07-16T18:10:02.660019,64,2
calm,0,64.327,41.16,0.326,0.091,16.316,36.55,-0.033,-0.138,9.818,0.893,97.9,2025-07-16T18:10:03.660019,65,2
calm,0,55.0,52.485,0.176,0.097,15.108,36.35,0.057,0.014,9.726,0.332,98.5,2025-07-16T18:10:04.660019,66,2
calm,0,70.042,39.833,0.409,0.075,15.43,36.44,0.019,0.054,9.836,0.157,96.3,2025-07-16T18:10:05.660019,67,2
calm,0,71.007,54.514,0.239,0.088,15.236,36.28,0.111,0.107,9.77,0.195,97.2,2025-07-16T18:10:06.660019,68,2
calm,0,63.649,42.951,0.443,0.051,14.953,36.54,0.016,-0.038,9.801,0.198,97.1,2025-07-16T18:10:07.660019,69,2
calm,0,81.947,40.882,0.244,0.014,14.494,36.61,-0.004,-0.027,9.804,0.434,96.6,2025-07-16T18:10:08.660019,70,2
calm,0,65.53,30.0,0.367,0.05,17.331,36.36,0.018,0.017,9.794,0.892,97.0,2025-07-16T18:10:09.660019,71,2
calm,0,73.387,50.724,0.281,0.07,13.988,36.57,-0.069,0.041,9.781,0.806,98.1,2025-07-16T18:10:10.660019,72,2
calm,0,65.906,48.422,0.437,0.153,13.05,36.43,0.035,0.019,9.758,0.178,96.5,2025-07-16T18:10:11.660019,73,2
calm,0,82.61,46.492,0.285,0.06,10.832,36.61,0.051,-0.029,9.778,0.767,96.2,2025-07-16T18:10:12.660019,74,2
calm,0,61.344,30.0,0.235,0.174,11.204,36.45,0.048,-0.09,9.795,0.2,98.3,2025-07-16T18:10:13.660019,75,2
calm,0,69.373,46.985,0.162,0.004,15.113,36.55,0.001,0.002,9.799,0.342,98.3,2025-07-16T18:10:14.660019,76,2
calm,0,76.744,37.591,0.305,0.118,11.128,36.55,0.041,0.303,9.82,0.88,96.7,2025-07-16T18:10:15.660019,77,2
calm,0,55.926,36.175,0.437,0.081,15.67,36.27,-0.094,-0.107,9.74,0.248,98.0,2025-07-16T18:10:16.660019,78,2
calm,0,64.413,48.63,0.298,0.085,17.547,36.38,0.209,0.097,9.905,0.869,97.2,2025-07-16T18:10:17.660019,79,2
calm,0,69.867,35.569,0.218,0.108,12.673,36.41,-0.009,-0.209,9.804,0.709,96.7,2025-07-16T18:10:18.660019,80,2
calm,0,63.485,31.687,0.151,0.075,17.714,36.42,-0.118,0.047,9.841,0.327,97.2,2025-07-16T18:10:19.660019,81,2
calm,0,76.06,43.565,0.479,0.045,16.76,36.46,0.023,0.038,9.784,0.821,95.7,2025-07-16T18:10:20.660019,82,2
calm,0,84.3,58.839,0.312,0.113,14.834,36.58,0.006,-0.121,9.659,0.594,95.7,2025-07-16T18:10:21.660019,83,2
calm,0,71.902,39.929,0.425,0.14,15.833,36.62,-0.014,0.05,9.667,0.432,96.9,2025-07-16T18:10:22.660019,84,2
calm,0,74.732,35.052,0.206,0.075,12.311,36.66,0.032,-0.035,9.806,0.676,97.7,2025-07-16T18:10:23.660019,85,2
calm,0,56.403,38.261,0.437,0.128,14.108,36.4,0.148,0.079,9.781,0.728,97.4,2025-07-16T18:10:24.660019,86,2
calm,0,74.959,65.0,0.3,0.151,14.008,36.58,-0.109,-0.003,9.766,0.75,97.5,2025-07-16T18:10:25.660019,87,2
calm,0,68.14,65.0,0.286,0.178,17.866,36.67,0.164,-0.255,9.774,0.475,96.8,2025-07-16T18:10:26.660019,88,2
calm,0,75.685,49.23,0.27,0.044,14.072,36.56,0.005,0.004,9.791,0.902,96.6,2025-07-16T18:10:27.660019,89,2
calm,0,57.293,43.265,0.35,0.095,16.133,36.38,-0.025,-0.044,9.731,0.68,96.6,2025-07-16T18:10:28.660019,90,2
calm,0,69.055,38.973,0.289,0.037,13.626,36.57,0.056,-0.046,9.827,0.25,97.1,2025-07-16T18:10:29.660019,91,2
calm,0,72.53,49.901,0.235,0.068,13.434,36.55,-0.102,0.033,9.774,0.774,98.1,2025-07-16T18:10:30.660019,92,2
calm,0,63.282,47.685,0.348,0.064,15.038,36.42,0.038,-0.03,9.795,0.745,97.1,2025-07-16T18:10:31.660019,93,2
calm,0,64.795,39.273,0.35,0.149,13.95,36.56,-0.001,-0.187,9.752,0.37,95.9,2025-07-16T18:10:32.660019,94,2
calm,0,73.187,30.0,0.182,0.11,13.603,36.61,0.087,0.029,9.758,0.897,96.8,2025-07-16T18:10:33.660019,95,2
calm,0,60.154,55.37,0.273,0.054,12.253,36.34,0.03,0.006,9.794,0.4,97.4,2025-07-16T18:10:34.660019,96,2
calm,0,83.494,49.592,0.25,0.001,10.0,36.53,0.0,-0.001,9.801,0.684,97.2,2025-07-16T18:10:35.660019,97,2
calm,0,72.206,55.182,0.15,0.123,15.173,36.49,0.062,0.083,9.884,0.763,98.2,2025-07-16T18:10:36.660019,98,2
calm,0,79.571,53.028,0.368,0.122,14.615,36.71,0.028,-0.016,9.799,0.478,96.5,2025-07-16T18:10:37.660019,99,2
calm,0,62.545,42.204,0.248,0.024,16.778,36.37,0.014,0.012,9.802,0.763,97.2,2025-07-16T18:10:38.660019,100,2
calm,0,55.307,38.264,0.2,0.111,13.972,36.5,0.096,0.083,9.892,0.102,98.8,2025-07-16T18:10:39.660019,101,2
calm,0,80.87,51.673,0.267,0.105,14.096,36.57,0.038,0.056,9.846,0.584,97.5,2025-07-16T18:10:40.660019,102,2
calm,0,75.003,32.191,0.268,0.154,13.048,36.62,-0.119,-0.098,9.716,0.184,98.2,2025-07-16T18:10:41.660019,103,2
calm,0,73.298,43.022,0.287,0.089,12.162,36.62,0.144,0.041,9.828,0.703,97.1,2025-07-16T18:10:42.660019,104,2
calm,0,55.0,37.113,0.322,0.175,17.702,36.44,-0.031,-0.165,9.682,0.633,96.5,2025-07-16T18:10:43.660019,105,2
calm,0,63.632,61.888,0.327,0.167,14.986,36.58,0.052,0.013,9.755,0.803,96.6,2025-07-16T18:10:44.660019,106,2
calm,0,75.685,45.408,0.259,0.093,14.821,36.7,0.022,0.185,9.82,0.493,96.7,2025-07-16T18:10:45.660019,107,2
calm,0,61.607,49.51,0.303,0.065,11.189,36.31,-0.048,0.116,9.848,0.939,96.6,2025-07-16T18:10:46.660019,108,2
calm,0,62.196,42.698,0.249,0.084,13.962,36.52,-0.095,-0.082,9.799,0.204,97.3,2025-07-16T18:10:47.660019,109,2
calm,0,76.227,46.863,0.338,0.1,14.613,36.75,-0.052,-0.0,9.764,0.949,97.0,2025-07-16T18:10:48.660019,110,2
calm,0,65.371,42.618,0.235,0.107,16.218,36.49,-0.205,-0.063,9.74,0.777,96.8,2025-07-16T18:10:49.660019,111,2
calm,0,60.838,48.039,0.42,0.073,18.0,36.34,0.059,0.021,9.736,0.497,96.7,2025-07-16T18:10:50.660019,112,2
calm,0,58.727,49.602,0.363,0.132,12.967,36.47,-0.106,-0.207,9.796,0.898,97.8,2025-07-16T18:10:51.660019,113,2
calm,0,65.613,46.983,0.373,0.035,13.905,36.54,-0.033,0.012,9.76,0.786,97.5,2025-07-16T18:10:52.660019,114,2
calm,0,68.563,50.766,0.229,0.102,13.268,36.76,-0.015,0.073,9.766,0.951,97.1,2025-07-16T18:10:53.660019,115,2
calm,0,64.382,49.505,0.22,0.091,15.23,36.48,0.023,-0.069,9.764,0.32,98.3,2025-07-16T18:10:54.660019,116,2
calm,0,70.818,46.95,0.286,0.129,15.799,36.67,-0.093,-0.161,9.903,0.957,97.4,2025-07-16T18:10:55.660019,117,2
calm,0,70.794,45.494,0.236,0.148,11.412,36.41,0.227,0.02,9.809,0.24,97.0,2025-07-16T18:10:56.660019,118,2
calm,0,72.96,49.539,0.218,0.086,10.041,36.76,0.164,-0.088,9.793,0.421,96.8,2025-07-16T18:10:57.660019,119,2
calm,0,69.35,33.453,0.258,0.117,11.592,36.62,-0.062,0.143,9.813,0.41,98.0,2025-07-16T18:10:58.660019,120,2
calm,0,64.048,30.0,0.223,0.12,17.005,36.42,0.178,0.13,9.825,0.345,96.8,2025-07-16T18:10:59.660019,121,2
calm,0,63.779,30.0,0.226,0.058,13.782,36.41,0.002,0.055,9.811,0.309,97.5,2025-07-16T18:11:00.660019,122,2
calm,0,71.66,42.03,0.318,0.131,13.484,36.51,0.102,0.216,9.657,0.926,97.2,2025-07-16T18:11:01.660019,123,2
calm,0,64.101,52.817,0.219,0.124,12.777,36.44,0.017,-0.251,9.761,0.877,97.9,2025-07-16T18:11:02.660019,124,2
calm,0,76.644,47.795,0.197,0.16,13.44,36.68,0.055,-0.183,9.712,0.428,97.1,2025-07-16T18:11:03.660019,125,2
calm,0,75.392,30.0,0.264,0.115,15.603,36.69,0.004,-0.045,9.748,0.324,96.5,2025-07-16T18:11:04.660019,126,2
calm,0,73.086,56.026,0.38,0.113,14.507,36.52,-0.075,-0.0,9.762,0.493,96.7,2025-07-16T18:11:05.660019,127,2
calm,0,75.76,46.4,0.357,0.047,13.106,36.64,-0.039,-0.035,9.809,0.104,97.6,2025-07-16T18:11:06.660019,128,2
calm,0,76.445,30.0,0.15,0.148,16.544,36.62,0.19,-0.22,9.704,0.904,97.4,2025-07-16T18:11:07.660019,129,2
calm,0,72.41,46.02,0.397,0.077,10.0,36.62,-0.032,-0.047,9.797,0.164,97.2,2025-07-16T18:11:08.660019,130,2
calm,0,74.122,37.311,0.281,0.027,12.863,36.5,-0.055,0.045,9.819,0.108,96.5,2025-07-16T18:11:09.660019,131,2
calm,0,63.809,62.676,0.332,0.107,12.944,36.58,-0.142,-0.181,9.756,0.365,97.3,2025-07-16T18:11:10.660019,132,2
calm,0,63.916,50.503,0.225,0.093,13.762,36.42,0.014,0.128,9.73,0.929,97.4,2025-07-16T18:11:11.660019,133,2
calm,0,65.099,31.196,0.349,0.136,13.43,36.55,-0.031,0.125,9.815,0.291,97.5,2025-07-16T18:11:12.660019,134,2
calm,0,55.25,50.934,0.298,0.096,14.36,36.33,-0.071,0.249,9.859,0.934,96.5,2025-07-16T18:11:13.660019,135,2
calm,0,71.116,35.738,0.272,0.163,13.086,36.58,-0.095,-0.176,9.955,0.27,97.4,2025-07-16T18:11:14.660019,136,2
calm,0,74.765,30.789,0.394,0.029,12.391,36.56,-0.041,0.01,9.775,0.957,97.2,2025-07-16T18:11:15.660019,137,2
calm,0,59.252,38.371,0.413,0.182,12.456,36.5,-0.102,0.084,9.726,0.794,97.5,2025-07-16T18:11:16.660019,138,2
calm,0,62.501,38.578,0.216,0.026,12.914,36.45,0.073,-0.0,9.832,0.253,96.8,2025-07-16T18:11:17.660019,139,2
calm,0,78.924,48.055,0.265,0.116,10.188,36.67,0.172,0.192,9.711,0.584,96.7,2025-07-16T18:11:18.660019,140,2
calm,0,64.784,47.368,0.26,0.151,13.773,36.54,0.103,0.208,9.743,0.453,96.5,2025-07-16T18:11:19.660019,141,2
calm,0,67.353,38.236,0.188,0.091,10.254,36.28,0.176,0.032,9.755,0.399,98.0,2025-07-16T18:11:20.660019,142,2
calm,0,68.699,55.65,0.221,0.076,13.628,36.54,-0.026,0.11,9.875,0.229,97.0,2025-07-16T18:11:21.660019,143,2
calm,0,76.731,54.586,0.292,0.097,10.173,36.78,-0.125,0.06,9.768,0.182,96.4,2025-07-16T18:11:22.660019,144,2
calm,0,57.817,42.072,0.287,0.165,15.597,36.34,0.08,0.221,9.725,0.614,97.8,2025-07-16T18:11:23.660019,145,2
calm,0,61.974,32.237,0.263,0.133,12.992,36.35,0.024,0.008,9.828,0.217,97.0,2025-07-16T18:11:24.660019,146,2
calm,0,76.957,33.144,0.479,0.097,12.675,36.64,0.005,-0.056,9.828,0.467,95.9,2025-07-16T18:11:25.660019,147,2
calm,0,76.616,37.02,0.369,0.099,10.0,36.47,-0.083,-0.052,9.774,0.932,95.6,2025-07-16T18:11:26.660019,148,2
calm,0,71.915,32.587,0.448,0.087,16.281,36.47,-0.037,-0.027,9.811,0.85,96.3,2025-07-16T18:11:27.660019,149,2
calm,0,63.953,38.742,0.4,0.114,14.581,36.61,0.081,0.08,9.799,0.369,97.4,2025-07-16T18:11:28.660019,150,2
calm,0,79.197,36.881,0.386,0.139,11.824,36.89,0.156,0.052,9.738,0.675,96.1,2025-07-16T18:11:29.660019,151,2
calm,0,72.414,61.647,0.274,0.134,11.717,36.72,0.092,-0.085,9.923,0.147,96.8,2025-07-16T18:11:30.660019,152,2
calm,0,74.037,51.769,0.232,0.174,14.424,36.63,0.351,0.027,9.875,0.204,97.1,2025-07-16T18:11:31.660019,153,2
calm,0,60.735,45.397,0.374,0.071,12.656,36.43,0.12,0.09,9.765,0.288,97.5,2025-07-16T18:11:32.660019,154,2
calm,0,68.214,43.26,0.324,0.13,15.743,36.56,-0.035,-0.359,9.814,0.105,97.7,2025-07-16T18:11:33.660019,155,2
calm,0,60.996,31.088,0.269,0.112,14.51,36.51,-0.004,0.158,9.745,0.893,97.5,2025-07-16T18:11:34.660019,156,2
calm,0,82.281,51.996,0.238,0.132,13.672,36.67,0.066,0.023,9.806,0.676,96.7,2025-07-16T18:11:35.660019,157,2
calm,0,67.639,41.813,0.452,0.021,16.413,36.45,0.008,0.007,9.791,0.843,96.5,2025-07-16T18:11:36.660019,158,2
calm,0,71.746,33.622,0.331,0.014,11.036,36.46,0.009,0.018,9.79,0.878,97.8,2025-07-16T18:11:37.660019,159,2
calm,0,62.449,39.337,0.365,0.143,17.886,36.34,0.057,0.055,9.832,0.815,96.3,2025-07-16T18:11:38.660019,160,2
calm,0,55.046,49.018,0.273,0.086,13.61,36.43,0.019,-0.1,9.832,0.819,97.2,2025-07-16T18:11:39.660019,161,2
calm,0,67.834,30.937,0.382,0.157,11.147,36.52,0.067,-0.011,9.832,0.296,97.0,2025-07-16T18:11:40.660019,162,2
calm,0,69.527,44.83,0.321,0.069,15.568,36.68,-0.2,-0.001,9.794,0.424,96.7,2025-07-16T18:11:41.660019,163,2
calm,0,79.37,45.664,0.384,0.151,11.346,36.77,-0.063,0.213,9.791,0.675,96.0,2025-07-16T18:11:42.660019,164,2
calm,0,68.705,35.401,0.276,0.058,16.166,36.56,0.03,-0.096,9.79,0.422,97.0,2025-07-16T18:11:43.660019,165,2
calm,0,75.264,47.0,0.301,0.065,12.996,36.58,-0.003,0.073,9.822,0.742,97.2,2025-07-16T18:11:44.660019,166,2
calm,0,75.821,65.0,0.3,0.09,12.945,36.39,0.129,-0.041,9.815,0.128,96.3,2025-07-16T18:11:45.660019,167,2
calm,0,76.614,50.321,0.25,0.123,16.35,36.8,-0.062,-0.158,9.935,0.313,97.0,2025-07-16T18:11:46.660019,168,2
calm,0,83.929,44.288,0.374,0.187,12.068,36.7,-0.097,-0.232,10.032,0.479,96.3,2025-07-16T18:11:47.660019,169,2
calm,0,67.137,54.713,0.162,0.137,15.318,36.5,0.026,0.027,9.679,0.503,97.4,2025-07-16T18:11:48.660019,170,2
calm,0,80.219,45.463,0.361,0.09,11.641,36.77,-0.099,-0.016,9.838,0.271,97.1,2025-07-16T18:11:49.660019,171,2
calm,0,74.387,55.533,0.265,0.234,14.643,36.6,0.273,-0.072,9.93,0.619,96.5,2025-07-16T18:11:50.660019,172,2
calm,0,55.019,58.309,0.259,0.054,14.596,36.42,0.013,0.003,9.794,0.829,97.0,2025-07-16T18:11:51.660019,173,2
calm,0,71.942,35.57,0.323,0.145,10.0,36.58,0.111,-0.022,9.678,0.457,97.1,2025-07-16T18:11:52.660019,174,2
calm,0,81.013,60.208,0.327,0.053,15.817,36.67,-0.071,-0.039,9.82,0.15,96.3,2025-07-16T18:11:53.660019,175,2
calm,0,73.23,55.285,0.405,0.192,11.311,36.63,0.063,0.182,9.958,0.65,97.5,2025-07-16T18:11:54.660019,176,2
calm,0,58.995,41.847,0.265,0.096,12.017,36.56,0.06,0.038,9.774,0.207,97.0,2025-07-16T18:11:55.660019,177,2
calm,0,77.194,42.198,0.28,0.136,14.35,36.63,-0.026,0.074,9.906,0.799,96.4,2025-07-16T18:11:56.660019,178,2
calm,0,78.671,42.47,0.306,0.091,12.507,36.83,0.012,-0.046,9.709,0.783,96.3,2025-07-16T18:11:57.660019,179,2
focused,1,73.393,37.618,0.396,0.07,13.68,36.571,0.02,-0.006,9.793,0.252,95.8,2025-07-16T18:11:58.660019,180,2
focused,1,78.535,47.806,0.398,0.045,18.0,36.75,0.012,0.062,9.84,0.238,96.2,2025-07-16T18:11:59.660019,181,2
focused,1,70.438,70.0,0.521,0.03,14.676,36.58,-0.022,0.001,9.771,0.681,96.3,2025-07-16T18:12:00.660019,182,2
focused,1,69.683,57.712,0.366,0.06,15.786,36.55,-0.033,0.023,9.791,0.28,96.5,2025-07-16T18:12:01.660019,183,2
focused,1,82.771,51.841,0.528,0.054,17.658,36.75,-0.087,0.049,9.804,0.67,95.9,2025-07-16T18:12:02.660019,184,2
focused,1,67.409,64.241,0.313,0.078,14.508,36.65,0.024,-0.043,9.845,0.104,97.1,2025-07-16T18:12:03.660019,185,2
focused,1,74.541,51.534,0.417,0.053,13.857,36.54,-0.084,-0.053,9.825,0.315,96.2,2025-07-16T18:12:04.660019,186,2
focused,1,75.667,42.398,0.381,0.061,15.094,36.59,0.141,0.013,9.818,0.189,97.2,2025-07-16T18:12:05.660019,187,2
focused,1,74.824,53.036,0.351,0.046,13.274,36.64,-0.031,0.032,9.8,0.399,96.8,2025-07-16T18:12:06.660019,188,2
focused,1,78.194,57.212,0.441,0.034,13.277,36.36,0.045,-0.005,9.765,0.327,96.5,2025-07-16T18:12:07.660019,189,2
focused,1,76.419,53.208,0.401,0.083,17.26,36.62,0.021,0.046,9.745,0.264,97.3,2025-07-16T18:12:08.660019,190,2
focused,1,84.339,53.564,0.338,0.076,15.684,36.62,-0.001,-0.001,9.801,0.508,96.4,2025-07-16T18:12:09.660019,191,2
focused,1,88.732,43.08,0.443,0.046,16.522,36.8,-0.019,-0.028,9.799,0.861,96.0,2025-07-16T18:12:10.660019,192,2
focused,1,78.355,64.361,0.454,0.072,16.261,36.72,0.097,0.013,9.793,0.926,96.5,2025-07-16T18:12:11.660019,193,2
focused,1,70.022,47.814,0.289,0.045,14.837,36.51,-0.056,0.028,9.839,0.128,96.7,2025-07-16T18:12:12.660019,194,2
focused,1,82.692,69.759,0.393,0.068,14.917,36.55,-0.034,-0.009,9.759,0.119,96.4,2025-07-16T18:12:13.660019,195,2
focused,1,78.492,36.055,0.449,0.065,15.55,36.45,-0.064,-0.008,9.812,0.173,96.3,2025-07-16T18:12:14.660019,196,2
focused,1,70.609,62.005,0.365,0.047,17.975,36.45,0.002,-0.127,9.781,0.94,97.7,2025-07-16T18:12:15.660019,197,2
focused,1,65.0,47.382,0.43,0.039,14.79,36.59,0.028,0.033,9.773,0.995,97.6,2025-07-16T18:12:16.660019,198,2
focused,1,76.713,39.215,0.515,0.075,17.462,36.69,0.008,-0.18,9.774,0.205,95.7,2025-07-16T18:12:17.660019,199,2
focused,1,75.377,50.328,0.345,0.048,15.216,36.59,0.056,0.023,9.801,0.874,96.4,2025-07-16T18:12:18.660019,200,2
focused,1,73.151,55.295,0.361,0.012,16.546,36.61,-0.003,0.004,9.795,0.731,96.5,2025-07-16T18:12:19.660019,201,2
focused,1,75.644,47.513,0.444,0.015,15.92,36.48,-0.009,-0.013,9.813,0.955,96.3,2025-07-16T18:12:20.660019,202,2
focused,1,82.9,51.247,0.443,0.073,12.27,36.56,0.005,-0.133,9.814,0.377,95.8,2025-07-16T18:12:21.660019,203,2
focused,1,76.674,56.873,0.438,0.046,14.533,36.51,0.058,-0.033,9.773,0.429,96.6,2025-07-16T18:12:22.660019,204,2
focused,1,73.341,52.237,0.375,0.034,14.263,36.51,0.038,-0.023,9.774,0.767,96.0,2025-07-16T18:12:23.660019,205,2
focused,1,81.34,63.912,0.381,0.039,15.433,36.67,0.062,-0.054,9.81,0.99,97.3,2025-07-16T18:12:24.660019,206,2
focused,1,78.231,49.172,0.311,0.091,16.162,36.6,-0.041,-0.097,9.807,0.605,97.2,2025-07-16T18:12:25.660019,207,2
focused,1,80.388,41.356,0.299,0.07,14.537,36.71,-0.057,0.059,9.833,0.774,96.6,2025-07-16T18:12:26.660019,208,2
focused,1,65.0,36.73,0.306,0.027,15.902,36.48,0.004,0.008,9.776,0.597,96.8,2025-07-16T18:12:27.660019,209,2
focused,1,75.985,50.336,0.422,0.047,17.29,36.54,-0.026,-0.049,9.815,0.353,96.6,2025-07-16T18:12:28.660019,210,2
focused,1,65.213,64.864,0.369,0.069,14.606,36.43,-0.06,0.051,9.809,0.149,96.7,2025-07-16T18:12:29.660019,211,2
focused,1,74.759,55.389,0.357,0.035,17.531,36.65,-0.075,-0.024,9.789,0.631,97.9,2025-07-16T18:12:30.660019,212,2
focused,1,85.445,53.872,0.385,0.055,13.707,36.67,0.027,0.052,9.812,0.176,96.4,2025-07-16T18:12:31.660019,213,2
focused,1,72.328,39.404,0.424,0.074,16.528,36.49,0.162,-0.006,9.775,0.16,96.8,2025-07-16T18:12:32.660019,214,2
focused,1,73.263,43.587,0.487,0.025,12.0,36.51,0.041,0.005,9.794,0.435,96.7,2025-07-16T18:12:33.660019,215,2
focused,1,66.524,55.557,0.371,0.048,14.183,36.29,0.026,0.005,9.826,0.344,96.7,2025-07-16T18:12:34.660019,216,2
focused,1,69.034,56.247,0.411,0.066,13.387,36.4,-0.008,-0.01,9.82,0.991,96.7,2025-07-16T18:12:35.660019,217,2
focused,1,66.644,51.542,0.391,0.072,17.871,36.34,-0.058,-0.103,9.768,0.592,97.3,2025-07-16T18:12:36.660019,218,2
focused,1,76.842,53.017,0.386,0.026,13.56,36.68,-0.028,-0.019,9.775,0.538,96.6,2025-07-16T18:12:37.660019,219,2
focused,1,82.04,35.34,0.384,0.063,14.663,36.58,0.203,-0.059,9.82,0.585,97.1,2025-07-16T18:12:38.660019,220,2
focused,1,81.237,45.598,0.341,0.059,14.823,36.58,0.035,-0.003,9.813,0.385,96.7,2025-07-16T18:12:39.660019,221,2
focused,1,77.085,38.881,0.48,0.068,14.184,36.45,0.095,-0.084,9.777,0.518,96.2,2025-07-16T18:12:40.660019,222,2
focused,1,77.154,45.732,0.459,0.044,15.067,36.56,-0.069,-0.005,9.797,0.749,96.3,2025-07-16T18:12:41.660019,223,2
focused,1,70.052,37.707,0.313,0.023,16.372,36.58,0.026,0.016,9.815,0.267,96.9,2025-07-16T18:12:42.660019,224,2
focused,1,77.146,44.906,0.398,0.051,17.905,36.84,0.01,0.058,9.767,0.279,97.3,2025-07-16T18:12:43.660019,225,2
focused,1,76.084,61.706,0.45,0.034,12.034,36.76,0.022,-0.035,9.813,0.676,95.9,2025-07-16T18:12:44.660019,226,2
focused,1,77.108,44.875,0.339,0.055,12.97,36.44,0.032,-0.03,9.828,0.661,96.7,2025-07-16T18:12:45.660019,227,2
focused,1,68.36,50.061,0.439,0.028,15.99,36.55,0.024,0.002,9.817,0.862,96.8,2025-07-16T18:12:46.660019,228,2
focused,1,77.08,70.0,0.437,0.004,14.242,36.57,0.007,0.002,9.8,0.47,97.2,2025-07-16T18:12:47.660019,229,2
focused,1,74.021,37.933,0.4,0.059,14.125,36.55,0.083,-0.013,9.761,0.233,97.1,2025-07-16T18:12:48.660019,230,2
focused,1,74.526,58.779,0.356,0.074,15.388,36.49,0.073,0.005,9.84,0.218,96.0,2025-07-16T18:12:49.660019,231,2
focused,1,77.782,46.699,0.496,0.035,12.0,36.68,0.027,0.023,9.821,0.854,96.5,2025-07-16T18:12:50.660019,232,2
focused,1,70.799,46.731,0.367,0.052,16.296,36.44,0.075,-0.021,9.828,0.324,97.3,2025-07-16T18:12:51.660019,233,2
focused,1,81.144,46.49,0.398,0.055,12.648,36.67,-0.039,0.051,9.778,0.343,96.8,2025-07-16T18:12:52.660019,234,2
focused,1,65.745,62.365,0.427,0.027,14.595,36.32,-0.029,-0.04,9.804,0.787,97.5,2025-07-16T18:12:53.660019,235,2
focused,1,75.496,61.085,0.442,0.047,13.826,36.48,-0.016,0.035,9.819,0.93,96.7,2025-07-16T18:12:54.660019,236,2
focused,1,89.089,48.128,0.55,0.003,16.242,36.73,-0.001,-0.001,9.8,0.442,95.8,2025-07-16T18:12:55.660019,237,2
focused,1,77.072,50.768,0.395,0.083,17.259,36.78,-0.043,0.036,9.8,0.114,96.7,2025-07-16T18:12:56.660019,238,2
focused,1,65.0,65.483,0.379,0.07,15.369,36.57,0.0,0.113,9.834,0.283,96.7,2025-07-16T18:12:57.660019,239,2
focused,1,70.611,43.767,0.421,0.05,14.945,36.56,0.018,0.016,9.836,0.548,96.4,2025-07-16T18:12:58.660019,240,2
focused,1,70.235,51.713,0.42,0.061,15.065,36.54,0.071,-0.034,9.785,0.869,96.7,2025-07-16T18:12:59.660019,241,2
focused,1,73.583,53.974,0.417,0.051,16.997,36.69,0.138,0.073,9.775,0.521,96.6,2025-07-16T18:13:00.660019,242,2
focused,1,71.242,53.147,0.385,0.026,17.192,36.49,-0.018,0.004,9.79,0.386,97.1,2025-07-16T18:13:01.660019,243,2
focused,1,90.0,60.363,0.547,0.042,15.403,36.77,0.023,-0.043,9.796,0.506,96.2,2025-07-16T18:13:02.660019,244,2
focused,1,81.865,46.159,0.278,0.092,15.886,36.56,-0.038,0.001,9.807,0.991,95.3,2025-07-16T18:13:03.660019,245,2
focused,1,71.026,35.0,0.416,0.06,15.257,36.71,-0.068,0.102,9.752,0.382,96.8,2025-07-16T18:13:04.660019,246,2
focused,1,75.523,41.769,0.372,0.036,15.22,36.66,0.007,-0.06,9.772,0.614,96.6,2025-07-16T18:13:05.660019,247,2
focused,1,73.037,53.314,0.381,0.045,15.918,36.62,-0.048,-0.031,9.803,0.375,97.9,2025-07-16T18:13:06.660019,248,2
focused,1,74.866,58.295,0.415,0.097,14.703,36.64,0.118,-0.026,9.877,0.216,96.8,2025-07-16T18:13:07.660019,249,2
focused,1,78.235,40.231,0.423,0.031,16.603,36.53,-0.017,-0.036,9.761,0.382,96.9,2025-07-16T18:13:08.660019,250,2
focused,1,67.143,64.076,0.456,0.052,14.256,36.77,0.015,-0.009,9.82,0.363,97.5,2025-07-16T18:13:09.660019,251,2
focused,1,90.0,52.475,0.406,0.066,17.653,36.53,-0.014,0.078,9.824,0.278,96.0,2025-07-16T18:13:10.660019,252,2
focused,1,74.864,37.522,0.389,0.049,14.349,36.69,-0.029,-0.003,9.752,0.541,96.6,2025-07-16T18:13:11.660019,253,2
focused,1,80.905,44.28,0.37,0.055,15.397,36.69,-0.133,-0.014,9.755,0.87,97.0,2025-07-16T18:13:12.660019,254,2
focused,1,70.442,50.521,0.442,0.049,14.945,36.51,0.006,0.007,9.78,0.985,96.6,2025-07-16T18:13:13.660019,255,2
focused,1,73.807,49.329,0.331,0.078,14.357,36.53,-0.12,-0.004,9.869,0.198,96.7,2025-07-16T18:13:14.660019,256,2
focused,1,70.445,43.61,0.413,0.091,15.402,36.6,-0.098,-0.051,9.824,0.903,97.6,2025-07-16T18:13:15.660019,257,2
focused,1,87.447,49.57,0.489,0.037,16.732,36.69,-0.017,0.029,9.801,0.125,96.0,2025-07-16T18:13:16.660019,258,2
focused,1,72.049,52.756,0.338,0.059,15.299,36.63,-0.089,0.01,9.844,0.655,97.7,2025-07-16T18:13:17.660019,259,2
focused,1,65.43,50.299,0.362,0.073,13.833,36.37,0.074,-0.034,9.75,0.994,95.8,2025-07-16T18:13:18.660019,260,2
focused,1,66.877,61.007,0.452,0.076,14.921,36.38,0.094,-0.062,9.812,0.784,96.6,2025-07-16T18:13:19.660019,261,2
focused,1,74.72,46.748,0.474,0.06,18.0,36.83,-0.021,0.002,9.771,0.42,95.8,2025-07-16T18:13:20.660019,262,2
focused,1,78.911,43.705,0.403,0.059,14.657,36.56,-0.042,0.009,9.8,0.302,96.6,2025-07-16T18:13:21.660019,263,2
focused,1,75.618,39.761,0.382,0.038,16.294,36.71,0.034,0.031,9.81,0.958,97.3,2025-07-16T18:13:22.660019,264,2
focused,1,73.427,61.993,0.362,0.071,13.997,36.55,0.025,-0.03,9.76,0.526,97.2,2025-07-16T18:13:23.660019,265,2
focused,1,72.481,52.013,0.346,0.047,17.091,36.43,0.036,-0.031,9.774,0.763,96.7,2025-07-16T18:13:24.660019,266,2
focused,1,74.998,55.893,0.331,0.07,16.595,36.59,-0.088,0.066,9.813,0.159,96.6,2025-07-16T18:13:25.660019,267,2
focused,1,82.921,47.822,0.378,0.057,14.641,36.79,-0.006,-0.011,9.795,0.236,96.9,2025-07-16T18:13:26.660019,268,2
focused,1,71.392,35.448,0.475,0.049,14.515,36.62,0.027,-0.022,9.793,0.563,97.5,2025-07-16T18:13:27.660019,269,2
focused,1,85.826,55.073,0.347,0.053,14.501,36.76,0.002,-0.045,9.768,0.408,96.9,2025-07-16T18:13:28.660019,270,2
focused,1,65.0,54.788,0.455,0.052,12.303,36.49,-0.045,0.037,9.798,0.835,97.1,2025-07-16T18:13:29.660019,271,2
focused,1,73.415,45.545,0.423,0.002,16.274,36.45,0.002,0.001,9.801,0.853,96.8,2025-07-16T18:13:30.660019,272,2
focused,1,81.33,47.803,0.475,0.06,14.12,36.77,-0.007,0.056,9.824,0.765,96.5,2025-07-16T18:13:31.660019,273,2
focused,1,80.515,58.456,0.423,0.034,16.979,36.73,0.064,-0.014,9.81,0.27,96.2,2025-07-16T18:13:32.660019,274,2
focused,1,79.125,58.186,0.434,0.061,12.0,36.58,-0.092,-0.059,9.711,0.916,96.7,2025-07-16T18:13:33.660019,275,2
focused,1,71.156,51.69,0.438,0.062,17.369,36.67,0.064,-0.044,9.786,0.731,97.3,2025-07-16T18:13:34.660019,276,2
focused,1,79.875,54.333,0.415,0.062,16.66,36.72,0.127,-0.015,9.752,0.159,96.9,2025-07-16T18:13:35.660019,277,2
focused,1,78.479,48.836,0.356,0.02,13.914,36.59,0.02,0.002,9.803,0.916,96.8,2025-07-16T18:13:36.660019,278,2
focused,1,74.957,66.322,0.401,0.076,16.256,36.53,0.056,0.039,9.726,0.21,96.9,2025-07-16T18:13:37.660019,279,2
focused,1,79.043,50.205,0.431,0.059,15.074,36.56,-0.026,0.004,9.85,0.597,96.0,2025-07-16T18:13:38.660019,280,2
focused,1,65.0,51.38,0.323,0.042,13.473,36.36,0.009,-0.03,9.827,0.92,97.3,2025-07-16T18:13:39.660019,281,2
focused,1,84.151,56.401,0.379,0.102,16.439,36.93,0.014,-0.005,9.773,0.479,96.2,2025-07-16T18:13:40.660019,282,2
focused,1,68.874,52.007,0.287,0.039,16.823,36.41,-0.041,-0.032,9.826,0.631,96.9,2025-07-16T18:13:41.660019,283,2
focused,1,75.365,58.904,0.45,0.083,14.813,36.65,0.057,0.014,9.772,0.539,97.0,2025-07-16T18:13:42.660019,284,2
focused,1,72.804,46.282,0.409,0.073,16.418,36.56,-0.052,-0.024,9.793,0.39,97.2,2025-07-16T18:13:43.660019,285,2
focused,1,79.893,51.483,0.335,0.039,15.226,36.63,-0.03,-0.058,9.753,0.132,96.9,2025-07-16T18:13:44.660019,286,2
focused,1,86.088,49.484,0.373,0.059,16.305,36.77,0.039,-0.024,9.797,0.578,96.5,2025-07-16T18:13:45.660019,287,2
focused,1,73.251,38.3,0.374,0.04,15.82,36.56,-0.012,-0.003,9.8,0.958,96.6,2025-07-16T18:13:46.660019,288,2
focused,1,72.48,47.429,0.361,0.04,15.038,36.57,-0.095,-0.06,9.854,0.273,98.4,2025-07-16T18:13:47.660019,289,2
focused,1,83.539,42.863,0.378,0.059,13.56,36.79,0.051,-0.013,9.798,0.265,96.2,2025-07-16T18:13:48.660019,290,2
focused,1,76.204,62.524,0.356,0.039,14.307,36.85,-0.046,-0.005,9.838,0.777,96.9,2025-07-16T18:13:49.660019,291,2
focused,1,67.851,51.187,0.365,0.052,17.269,36.52,-0.008,0.006,9.818,0.388,97.1,2025-07-16T18:13:50.660019,292,2
focused,1,65.0,46.428,0.436,0.025,14.43,36.51,0.007,-0.001,9.805,0.687,96.7,2025-07-16T18:13:51.660019,293,2
focused,1,75.494,52.575,0.396,0.016,12.522,36.73,-0.026,-0.004,9.811,0.907,97.8,2025-07-16T18:13:52.660019,294,2
focused,1,80.971,50.026,0.378,0.056,12.549,36.53,-0.047,-0.021,9.784,0.274,96.6,2025-07-16T18:13:53.660019,295,2
focused,1,80.633,41.794,0.407,0.066,17.054,36.61,-0.092,-0.089,9.767,0.818,96.3,2025-07-16T18:13:54.660019,296,2
focused,1,69.541,52.531,0.482,0.062,15.08,36.44,0.076,0.058,9.835,0.851,97.1,2025-07-16T18:13:55.660019,297,2
focused,1,77.744,48.994,0.451,0.046,17.266,36.64,-0.053,0.016,9.791,0.927,97.1,2025-07-16T18:13:56.660019,298,2
focused,1,65.0,35.458,0.467,0.054,16.011,36.51,-0.013,0.015,9.746,0.253,97.0,2025-07-16T18:13:57.660019,299,2
calm,0,69.913,36.189,0.273,0.029,16.512,36.49,0.014,0.035,9.823,0.509,96.5,2025-07-16T18:08:58.709363,0,3
calm,0,75.138,48.686,0.426,0.0,14.721,36.57,0.0,0.0,9.8,0.259,96.4,2025-07-16T18:08:59.709363,1,3
calm,0,74.625,39.049,0.207,0.146,17.835,36.55,-0.032,0.073,9.84,0.811,97.1,2025-07-16T18:09:00.709363,2,3
calm,0,71.98,53.949,0.494,0.059,16.209,36.43,-0.057,-0.021,9.743,0.969,96.8,2025-07-16T18:09:01.709363,3,3
calm,0,71.636,30.113,0.308,0.128,15.375,36.46,0.001,-0.093,9.807,0.675,96.8,2025-07-16T18:09:02.709363,4,3
calm,0,55.144,62.478,0.307,0.034,14.185,36.25,0.034,0.016,9.786,0.703,97.4,2025-07-16T18:09:03.709363,5,3
calm,0,69.363,30.64,0.398,0.181,13.701,36.51,0.217,-0.181,9.586,0.838,96.6,2025-07-16T18:09:04.709363,6,3
calm,0,64.671,61.036,0.338,0.236,15.889,36.5,-0.273,0.284,9.912,0.692,97.4,2025-07-16T18:09:05.709363,7,3
calm,0,74.319,41.77,0.323,0.103,16.683,36.5,0.067,-0.109,9.829,0.815,96.8,2025-07-16T18:09:06.709363,8,3
calm,0,78.364,48.958,0.303,0.068,12.051,36.66,0.005,0.137,9.82,0.52,96.6,2025-07-16T18:09:07.709363,9,3
calm,0,76.665,52.35,0.353,0.103,14.502,36.61,-0.021,-0.099,9.807,0.225,95.6,2025-07-16T18:09:08.709363,10,3
calm,0,65.58,33.638,0.326,0.096,14.942,36.4,0.11,0.06,9.831,0.516,96.9,2025-07-16T18:09:09.709363,11,3
calm,0,57.106,37.721,0.198,0.115,15.096,36.32,-0.142,0.096,9.791,0.963,97.0,2025-07-16T18:09:10.709363,12,3
calm,0,73.38,37.167,0.277,0.176,14.675,36.69,0.214,0.096,9.843,0.335,96.6,2025-07-16T18:09:11.709363,13,3
calm,0,67.812,40.153,0.277,0.15,17.193,36.59,-0.314,0.078,9.687,0.688,96.6,2025-07-16T18:09:12.709363,14,3
calm,0,70.439,60.133,0.307,0.081,11.803,36.5,-0.075,-0.034,9.766,0.353,96.7,2025-07-16T18:09:13.709363,15,3
calm,0,75.798,37.972,0.244,0.151,13.45,36.68,0.134,-0.004,9.786,0.217,96.8,2025-07-16T18:09:14.709363,16,3
calm,0,63.985,34.542,0.301,0.092,11.255,36.58,-0.136,-0.017,9.807,0.797,97.5,2025-07-16T18:09:15.709363,17,3
calm,0,62.144,48.133,0.268,0.161,15.743,36.69,0.3,0.224,9.896,0.182,97.9,2025-07-16T18:09:16.709363,18,3
calm,0,56.565,54.459,0.275,0.097,13.696,36.32,0.08,-0.146,9.857,0.123,98.1,2025-07-16T18:09:17.709363,19,3
calm,0,65.151,57.268,0.366,0.17,12.341,36.58,0.146,0.212,9.679,0.972,97.2,2025-07-16T18:09:18.709363,20,3
calm,0,68.018,46.505,0.183,0.096,18.0,36.62,0.042,-0.058,9.821,0.939,97.4,2025-07-16T18:09:19.709363,21,3
calm,0,80.546,52.626,0.236,0.109,14.576,36.93,-0.069,0.169,9.809,0.508,96.6,2025-07-16T18:09:20.709363,22,3
calm,0,55.0,44.047,0.307,0.143,16.175,36.37,-0.056,-0.081,9.759,0.203,97.6,2025-07-16T18:09:21.709363,23,3
calm,0,74.855,33.589,0.323,0.067,11.826,36.53,-0.058,-0.129,9.813,0.227,97.7,2025-07-16T18:09:22.709363,24,3
calm,0,63.289,37.399,0.324,0.128,13.49,36.52,0.103,0.082,9.82,0.166,97.5,2025-07-16T18:09:23.709363,25,3
calm,0,71.082,65.0,0.327,0.123,14.299,36.55,-0.033,-0.169,9.794,0.314,97.4,2025-07-16T18:09:24.709363,26,3
calm,0,61.084,48.446,0.213,0.098,12.489,36.32,0.021,0.086,9.769,0.793,97.4,2025-07-16T18:09:25.709363,27,3
calm,0,67.62,45.301,0.269,0.125,11.93,36.6,-0.177,-0.035,9.812,0.47,97.3,2025-07-16T18:09:26.709363,28,3
calm,0,63.028,46.145,0.342,0.048,10.256,36.63,-0.023,-0.053,9.804,0.109,97.2,2025-07-16T18:09:27.709363,29,3
calm,0,75.396,37.132,0.248,0.108,10.139,36.66,0.055,0.027,9.778,0.391,96.6,2025-07-16T18:09:28.709363,30,3
calm,0,70.179,30.096,0.273,0.095,14.904,36.73,0.068,0.053,9.753,0.681,96.3,2025-07-16T18:09:29.709363,31,3
calm,0,75.987,47.245,0.306,0.071,16.826,36.47,0.112,-0.077,9.821,0.276,96.8,2025-07-16T18:09:30.709363,32,3
calm,0,67.519,48.692,0.298,0.142,17.577,36.41,0.246,-0.066,9.765,0.567,96.9,2025-07-16T18:09:31.709363,33,3
calm,0,56.524,60.544,0.347,0.108,16.394,36.44,-0.1,0.026,9.828,0.575,98.6,2025-07-16T18:09:32.709363,34,3
calm,0,56.469,56.268,0.306,0.062,15.561,36.53,0.032,-0.131,9.81,0.209,96.5,2025-07-16T18:09:33.709363,35,3
calm,0,60.45,42.419,0.197,0.172,13.524,36.46,-0.091,0.308,9.868,0.876,97.4,2025-07-16T18:09:34.709363,36,3
calm,0,73.68,49.219,0.272,0.102,11.97,36.52,-0.017,-0.047,9.846,0.166,96.9,2025-07-16T18:09:35.709363,37,3
calm,0,72.179,46.091,0.399,0.042,15.549,36.44,-0.017,0.022,9.829,0.209,96.0,2025-07-16T18:09:36.709363,38,3
calm,0,67.577,55.727,0.32,0.054,17.56,36.48,-0.009,0.019,9.806,0.188,97.1,2025-07-16T18:09:37.709363,39,3
calm,0,76.196,51.961,0.255,0.171,15.585,36.72,-0.041,0.158,9.622,0.71,96.7,2025-07-16T18:09:38.709363,40,3
calm,0,66.325,54.196,0.339,0.145,11.078,36.62,0.091,0.097,9.781,0.132,97.1,2025-07-16T18:09:39.709363,41,3
calm,0,57.488,39.157,0.244,0.124,15.852,36.42,-0.26,0.331,9.794,0.756,98.0,2025-07-16T18:09:40.709363,42,3
calm,0,81.447,48.128,0.336,0.136,12.173,36.78,-0.048,-0.053,9.84,0.882,97.0,2025-07-16T18:09:41.709363,43,3
calm,0,58.429,57.845,0.153,0.129,15.012,36.62,-0.123,0.065,9.735,0.294,98.7,2025-07-16T18:09:42.709363,44,3
calm,0,79.884,35.679,0.418,0.074,15.742,36.63,-0.045,-0.018,9.819,0.519,96.4,2025-07-16T18:09:43.709363,45,3
calm,0,70.299,51.273,0.261,0.062,14.33,36.61,-0.023,-0.041,9.831,0.86,96.4,2025-07-16T18:09:44.709363,46,3
calm,0,58.456,48.706,0.192,0.047,10.82,36.33,-0.012,0.006,9.785,0.71,97.3,2025-07-16T18:09:45.709363,47,3
calm,0,76.756,35.624,0.25,0.178,14.494,36.55,0.294,-0.163,9.849,0.152,96.8,2025-07-16T18:09:46.709363,48,3
calm,0,66.896,40.314,0.257,0.108,14.073,36.47,0.003,-0.006,9.794,0.648,96.5,2025-07-16T18:09:47.709363,49,3
calm,0,57.484,54.647,0.305,0.079,14.423,36.42,-0.05,-0.05,9.724,0.714,97.1,2025-07-16T18:09:48.709363,50,3
calm,0,62.09,30.0,0.203,0.0,14.251,36.27,0.0,0.0,9.8,0.836,96.9,2025-07-16T18:09:49.709363,51,3
calm,0,73.417,45.965,0.204,0.108,10.803,36.54,-0.108,0.155,9.833,0.81,97.1,2025-07-16T18:09:50.709363,52,3
calm,0,77.286,30.0,0.278,0.0,14.822,36.5,0.0,0.0,9.8,0.207,96.3,2025-07-16T18:09:51.709363,53,3
calm,0,62.754,49.057,0.346,0.065,12.86,36.5,0.072,-0.056,9.779,0.283,96.5,2025-07-16T18:09:52.709363,54,3
calm,0,62.852,37.973,0.362,0.035,11.704,36.39,-0.015,-0.015,9.809,0.857,97.0,2025-07-16T18:09:53.709363,55,3
calm,0,65.746,64.755,0.336,0.096,11.012,36.52,-0.188,0.172,9.79,0.569,96.8,2025-07-16T18:09:54.709363,56,3
calm,0,63.211,47.184,0.248,0.172,14.373,36.71,-0.034,0.357,9.801,0.99,96.9,2025-07-16T18:09:55.709363,57,3
calm,0,68.686,38.71,0.372,0.102,13.927,36.57,-0.124,-0.115,9.763,0.486,98.1,2025-07-16T18:09:56.709363,58,3
calm,0,74.088,47.588,0.285,0.094,10.883,36.6,0.022,-0.175,9.758,0.173,96.9,2025-07-16T18:09:57.709363,59,3
calm,0,70.059,65.0,0.258,0.007,12.94,36.36,0.009,0.004,9.803,0.663,96.7,2025-07-16T18:09:58.709363,60,3
calm,0,66.829,52.751,0.314,0.101,14.374,36.65,-0.11,0.031,9.755,0.285,97.1,2025-07-16T18:09:59.709363,61,3
calm,0,68.513,49.892,0.256,0.09,11.239,36.55,0.018,0.092,9.805,0.508,97.1,2025-07-16T18:10:00.709363,62,3
calm,0,65.32,50.212,0.301,0.113,14.392,36.44,0.034,0.073,9.822,0.369,96.9,2025-07-16T18:10:01.709363,63,3
calm,0,63.055,48.646,0.438,0.086,14.066,36.45,-0.095,-0.093,9.807,0.424,96.5,2025-07-16T18:10:02.709363,64,3
calm,0,68.605,33.75,0.374,0.121,13.347,36.58,0.049,-0.035,9.862,0.663,97.3,2025-07-16T18:10:03.709363,65,3
calm,0,56.024,42.666,0.15,0.091,14.942,36.42,0.033,0.101,9.812,0.101,99.1,2025-07-16T18:10:04.709363,66,3
calm,0,83.675,30.0,0.312,0.12,12.282,36.68,0.05,-0.008,9.865,0.549,96.9,2025-07-16T18:10:05.709363,67,3
calm,0,71.275,41.578,0.282,0.108,13.779,36.52,0.045,-0.039,9.832,0.472,97.1,2025-07-16T18:10:06.709363,68,3
calm,0,68.48,51.749,0.319,0.089,14.503,36.59,0.082,-0.108,9.876,0.405,96.6,2025-07-16T18:10:07.709363,69,3
calm,0,66.367,45.752,0.255,0.085,14.51,36.32,0.176,-0.118,9.822,0.674,96.9,2025-07-16T18:10:08.709363,70,3
calm,0,78.594,53.795,0.31,0.143,13.812,36.66,-0.174,-0.166,9.777,0.801,96.4,2025-07-16T18:10:09.709363,71,3
calm,0,74.954,65.0,0.405,0.041,13.549,36.51,0.033,-0.02,9.806,0.953,96.3,2025-07-16T18:10:10.709363,72,3
calm,0,67.843,48.541,0.249,0.127,15.534,36.6,0.026,-0.041,9.75,0.814,97.4,2025-07-16T18:10:11.709363,73,3
calm,0,63.889,46.433,0.16,0.127,11.72,36.5,0.154,-0.194,9.895,0.723,98.8,2025-07-16T18:10:12.709363,74,3
calm,0,79.128,45.597,0.311,0.087,13.416,36.84,0.048,-0.071,9.783,0.688,97.6,2025-07-16T18:10:13.709363,75,3
calm,0,62.434,60.152,0.429,0.15,14.415,36.52,-0.057,-0.036,9.766,0.493,97.5,2025-07-16T18:10:14.709363,76,3
calm,0,64.208,57.405,0.216,0.092,17.529,36.54,-0.039,0.041,9.755,0.676,96.5,2025-07-16T18:10:15.709363,77,3
calm,0,75.299,56.504,0.205,0.043,12.814,36.72,-0.001,-0.062,9.811,0.31,97.1,2025-07-16T18:10:16.709363,78,3
calm,0,61.324,44.584,0.316,0.077,12.347,36.49,0.102,0.078,9.85,0.948,97.3,2025-07-16T18:10:17.709363,79,3
calm,0,85.0,30.023,0.259,0.113,13.925,36.66,-0.223,0.037,9.766,0.897,96.4,2025-07-16T18:10:18.709363,80,3
calm,0,81.987,55.011,0.194,0.092,14.977,36.53,-0.072,-0.093,9.885,0.579,97.0,2025-07-16T18:10:19.709363,81,3
calm,0,62.251,54.721,0.267,0.032,14.581,36.46,-0.01,0.011,9.783,0.275,97.3,2025-07-16T18:10:20.709363,82,3
calm,0,62.176,53.4,0.301,0.153,11.775,36.55,0.052,0.071,9.749,0.753,97.5,2025-07-16T18:10:21.709363,83,3
calm,0,85.0,57.033,0.366,0.042,13.905,36.52,0.035,0.005,9.821,0.109,96.6,2025-07-16T18:10:22.709363,84,3
calm,0,68.463,48.358,0.453,0.079,13.276,36.5,0.038,0.092,9.789,0.748,97.5,2025-07-16T18:10:23.709363,85,3
calm,0,62.013,43.283,0.363,0.105,13.383,36.42,-0.062,0.083,9.848,0.451,96.5,2025-07-16T18:10:24.709363,86,3
calm,0,68.902,32.616,0.434,0.13,11.655,36.52,-0.0,-0.031,9.829,0.975,96.9,2025-07-16T18:10:25.709363,87,3
calm,0,75.104,36.438,0.38,0.105,13.508,36.49,0.029,0.06,9.777,0.306,96.6,2025-07-16T18:10:26.709363,88,3
calm,0,70.971,43.049,0.291,0.065,11.723,36.55,0.034,0.01,9.778,0.904,97.0,2025-07-16T18:10:27.709363,89,3
calm,0,69.786,44.798,0.305,0.008,10.0,36.54,-0.002,0.022,9.796,0.912,97.8,2025-07-16T18:10:28.709363,90,3
calm,0,67.123,31.468,0.192,0.074,12.232,36.33,0.044,-0.016,9.75,0.762,97.2,2025-07-16T18:10:29.709363,91,3
calm,0,81.313,62.946,0.222,0.125,12.16,36.6,0.038,0.094,9.749,0.765,96.0,2025-07-16T18:10:30.709363,92,3
calm,0,68.619,34.585,0.282,0.136,15.356,36.63,0.225,0.004,9.738,0.103,98.2,2025-07-16T18:10:31.709363,93,3
calm,0,74.212,60.221,0.439,0.074,11.533,36.7,0.036,-0.0,9.826,0.713,96.9,2025-07-16T18:10:32.709363,94,3
calm,0,73.721,39.073,0.305,0.127,16.534,36.49,-0.04,0.139,9.828,0.313,96.4,2025-07-16T18:10:33.709363,95,3
calm,0,55.757,42.726,0.172,0.102,15.142,36.35,0.22,-0.041,9.729,0.294,98.8,2025-07-16T18:10:34.709363,96,3
calm,0,78.716,30.866,0.341,0.084,14.843,36.54,0.005,0.022,9.93,0.636,96.6,2025-07-16T18:10:35.709363,97,3
calm,0,75.934,44.934,0.218,0.025,14.034,36.7,-0.032,-0.019,9.789,0.455,97.3,2025-07-16T18:10:36.709363,98,3
calm,0,66.131,38.958,0.311,0.072,17.316,36.53,-0.054,-0.003,9.8,0.769,97.6,2025-07-16T18:10:37.709363,99,3
calm,0,56.745,38.707,0.211,0.092,12.732,36.41,-0.064,0.24,9.78,0.931,97.9,2025-07-16T18:10:38.709363,100,3
calm,0,63.624,37.65,0.212,0.126,12.251,36.57,-0.182,0.033,9.782,0.121,98.8,2025-07-16T18:10:39.709363,101,3
calm,0,59.667,57.466,0.38,0.146,12.171,36.72,0.076,-0.215,9.988,0.833,96.7,2025-07-16T18:10:40.709363,102,3
calm,0,62.034,55.493,0.202,0.112,16.549,36.4,-0.228,-0.203,9.829,0.842,97.3,2025-07-16T18:10:41.709363,103,3
calm,0,70.301,56.112,0.419,0.144,15.365,36.59,-0.007,-0.144,9.773,0.639,97.2,2025-07-16T18:10:42.709363,104,3
calm,0,65.794,46.722,0.229,0.148,15.12,36.43,0.235,-0.04,9.856,0.468,96.8,2025-07-16T18:10:43.709363,105,3
calm,0,64.555,40.408,0.409,0.125,15.564,36.58,0.256,-0.016,9.802,0.344,97.9,2025-07-16T18:10:44.709363,106,3
calm,0,63.734,51.373,0.347,0.054,13.91,36.54,0.045,-0.011,9.821,0.37,97.7,2025-07-16T18:10:45.709363,107,3
calm,0,68.631,45.777,0.297,0.142,11.057,36.63,0.151,-0.185,9.84,0.419,97.9,2025-07-16T18:10:46.709363,108,3
calm,0,72.49,35.058,0.259,0.152,16.798,36.77,-0.093,-0.107,9.82,0.584,97.6,2025-07-16T18:10:47.709363,109,3
calm,0,81.412,42.605,0.418,0.098,14.716,36.79,0.048,-0.099,9.831,0.99,96.8,2025-07-16T18:10:48.709363,110,3
calm,0,59.721,41.349,0.338,0.07,10.47,36.55,-0.043,0.141,9.808,0.747,97.2,2025-07-16T18:10:49.709363,111,3
calm,0,69.259,32.579,0.434,0.146,14.422,36.41,-0.118,0.265,9.835,0.318,96.2,2025-07-16T18:10:50.709363,112,3
calm,0,75.909,51.518,0.257,0.155,13.784,36.52,0.297,0.176,9.823,0.14,96.4,2025-07-16T18:10:51.709363,113,3
calm,0,70.088,47.216,0.15,0.088,16.921,36.57,0.127,0.014,9.701,0.128,97.6,2025-07-16T18:10:52.709363,114,3
calm,0,68.875,51.976,0.296,0.116,14.561,36.53,-0.047,0.043,9.829,0.159,96.1,2025-07-16T18:10:53.709363,115,3
calm,0,73.917,33.432,0.274,0.119,13.654,36.43,-0.344,-0.174,9.817,0.811,97.5,2025-07-16T18:10:54.709363,116,3
calm,0,81.433,47.896,0.383,0.029,13.037,36.55,-0.018,-0.003,9.806,0.358,96.2,2025-07-16T18:10:55.709363,117,3
calm,0,71.73,56.828,0.265,0.165,15.986,36.68,0.148,0.251,9.748,0.816,97.7,2025-07-16T18:10:56.709363,118,3
calm,0,64.7,54.713,0.287,0.091,13.669,36.41,0.076,-0.015,9.8,0.593,98.1,2025-07-16T18:10:57.709363,119,3
calm,0,69.026,52.717,0.253,0.157,13.314,36.85,0.137,-0.221,9.832,0.55,97.5,2025-07-16T18:10:58.709363,120,3
calm,0,68.066,33.74,0.335,0.074,17.804,36.56,0.057,0.064,9.767,0.135,96.9,2025-07-16T18:10:59.709363,121,3
calm,0,74.656,58.713,0.307,0.021,15.301,36.56,0.019,-0.007,9.806,0.257,96.4,2025-07-16T18:11:00.709363,122,3
calm,0,76.09,46.03,0.333,0.15,15.578,36.54,0.109,-0.384,9.967,0.207,96.8,2025-07-16T18:11:01.709363,123,3
calm,0,71.086,36.368,0.259,0.121,10.213,36.44,-0.005,-0.002,9.844,0.435,97.4,2025-07-16T18:11:02.709363,124,3
calm,0,62.505,53.241,0.273,0.025,12.497,36.49,0.048,0.028,9.794,0.866,97.7,2025-07-16T18:11:03.709363,125,3
calm,0,56.634,37.917,0.355,0.133,13.298,36.58,-0.128,0.091,9.83,0.888,98.0,2025-07-16T18:11:04.709363,126,3
calm,0,60.91,45.212,0.252,0.082,17.609,36.53,-0.022,-0.061,9.719,0.875,97.2,2025-07-16T18:11:05.709363,127,3
calm,0,84.234,62.45,0.28,0.083,16.838,36.7,0.018,-0.038,9.793,0.356,97.1,2025-07-16T18:11:06.709363,128,3
calm,0,72.437,48.475,0.223,0.128,10.934,36.47,0.037,-0.145,9.816,0.859,96.9,2025-07-16T18:11:07.709363,129,3
calm,0,58.545,44.329,0.32,0.103,16.981,36.35,0.065,-0.013,9.75,0.9,96.9,2025-07-16T18:11:08.709363,130,3
calm,0,71.819,64.328,0.289,0.085,14.223,36.54,-0.146,-0.043,9.774,0.312,97.9,2025-07-16T18:11:09.709363,131,3
calm,0,74.655,50.275,0.314,0.161,10.176,36.68,0.045,0.051,9.691,0.293,97.7,2025-07-16T18:11:10.709363,132,3
calm,0,71.371,50.514,0.288,0.146,14.184,36.61,-0.071,-0.029,9.807,0.336,97.0,2025-07-16T18:11:11.709363,133,3
calm,0,73.015,39.377,0.346,0.127,13.693,36.75,-0.212,0.135,9.743,0.314,96.8,2025-07-16T18:11:12.709363,134,3
calm,0,81.806,42.174,0.47,0.076,10.126,36.78,0.095,-0.136,9.821,0.901,97.1,2025-07-16T18:11:13.709363,135,3
calm,0,56.882,40.738,0.283,0.079,18.0,36.37,-0.044,0.146,9.884,0.161,98.0,2025-07-16T18:11:14.709363,136,3
calm,0,71.667,41.449,0.267,0.121,14.028,36.57,-0.021,-0.192,9.841,0.297,97.6,2025-07-16T18:11:15.709363,137,3
calm,0,74.856,30.133,0.214,0.085,13.264,36.47,0.145,-0.044,9.785,0.168,97.3,2025-07-16T18:11:16.709363,138,3
calm,0,67.028,30.43,0.391,0.049,12.939,36.75,0.007,0.074,9.8,0.159,97.7,2025-07-16T18:11:17.709363,139,3
calm,0,64.694,32.592,0.205,0.197,12.232,36.6,-0.292,0.288,9.648,0.314,97.4,2025-07-16T18:11:18.709363,140,3
calm,0,79.822,37.956,0.403,0.061,14.561,36.61,-0.03,-0.032,9.803,0.227,97.4,2025-07-16T18:11:19.709363,141,3
calm,0,76.698,54.564,0.209,0.15,11.373,36.54,0.009,0.171,9.8,0.285,96.5,2025-07-16T18:11:20.709363,142,3
calm,0,60.271,49.834,0.237,0.061,12.149,36.37,0.002,-0.008,9.823,0.416,97.1,2025-07-16T18:11:21.709363,143,3
calm,0,77.102,43.685,0.344,0.135,15.153,36.57,0.0,-0.101,9.777,0.184,96.2,2025-07-16T18:11:22.709363,144,3
calm,0,57.203,38.039,0.398,0.157,16.664,36.63,0.057,0.099,9.859,0.446,97.0,2025-07-16T18:11:23.709363,145,3
calm,0,74.862,49.757,0.248,0.017,14.309,36.6,-0.017,-0.022,9.8,0.481,96.9,2025-07-16T18:11:24.709363,146,3
calm,0,84.011,45.831,0.435,0.116,14.737,36.56,-0.219,0.028,9.795,0.457,96.3,2025-07-16T18:11:25.709363,147,3
calm,0,72.81,47.878,0.199,0.088,12.304,36.42,0.029,0.097,9.784,0.138,96.8,2025-07-16T18:11:26.709363,148,3
calm,0,57.554,50.139,0.272,0.084,14.955,36.52,0.092,-0.093,9.82,0.736,97.8,2025-07-16T18:11:27.709363,149,3
calm,0,65.686,48.809,0.264,0.108,16.771,36.46,0.005,0.014,9.76,0.425,97.4,2025-07-16T18:11:28.709363,150,3
calm,0,76.409,51.349,0.346,0.098,13.496,36.5,-0.094,-0.033,9.818,0.414,96.4,2025-07-16T18:11:29.709363,151,3
calm,0,75.501,40.667,0.221,0.073,11.94,36.54,-0.132,0.007,9.852,0.119,98.1,2025-07-16T18:11:30.709363,152,3
calm,0,70.552,30.444,0.311,0.138,16.165,36.59,0.39,-0.003,9.76,0.396,96.9,2025-07-16T18:11:31.709363,153,3
calm,0,80.97,51.252,0.271,0.056,12.429,36.59,0.018,0.006,9.77,0.771,96.7,2025-07-16T18:11:32.709363,154,3
calm,0,59.508,32.829,0.226,0.09,16.005,36.55,0.094,0.03,9.712,0.335,96.9,2025-07-16T18:11:33.709363,155,3
calm,0,58.344,30.0,0.385,0.078,16.234,36.31,0.117,-0.13,9.725,0.236,97.8,2025-07-16T18:11:34.709363,156,3
calm,0,62.984,46.502,0.237,0.179,11.706,36.45,0.039,0.057,9.887,0.799,96.8,2025-07-16T18:11:35.709363,157,3
calm,0,74.174,37.757,0.382,0.122,13.502,36.66,0.183,0.037,9.71,0.437,96.5,2025-07-16T18:11:36.709363,158,3
calm,0,73.757,35.177,0.274,0.063,11.982,36.64,-0.125,0.005,9.752,0.464,96.6,2025-07-16T18:11:37.709363,159,3
calm,0,70.214,45.925,0.217,0.161,12.36,36.75,-0.164,-0.212,9.758,0.281,96.6,2025-07-16T18:11:38.709363,160,3
calm,0,84.673,38.849,0.41,0.05,10.186,36.7,-0.056,0.103,9.806,0.34,95.3,2025-07-16T18:11:39.709363,161,3
calm,0,75.3,48.723,0.332,0.169,14.673,36.81,-0.141,0.2,9.774,0.175,96.2,2025-07-16T18:11:40.709363,162,3
calm,0,62.425,47.59,0.237,0.044,10.412,36.54,0.017,-0.076,9.783,0.881,97.3,2025-07-16T18:11:41.709363,163,3
calm,0,83.726,38.592,0.437,0.092,13.936,36.7,0.103,-0.069,9.811,0.52,95.2,2025-07-16T18:11:42.709363,164,3
calm,0,70.837,36.664,0.28,0.176,13.356,36.49,0.179,-0.118,9.799,0.962,97.1,2025-07-16T18:11:43.709363,165,3
calm,0,63.849,49.516,0.284,0.126,12.375,36.39,0.153,-0.125,9.778,0.351,97.5,2025-07-16T18:11:44.709363,166,3
calm,0,72.673,46.406,0.332,0.047,12.585,36.57,0.04,0.02,9.792,0.938,97.0,2025-07-16T18:11:45.709363,167,3
calm,0,59.14,44.692,0.233,0.074,13.789,36.22,0.036,-0.037,9.784,0.51,97.4,2025-07-16T18:11:46.709363,168,3
calm,0,63.798,37.053,0.194,0.1,12.254,36.32,-0.068,0.013,9.818,0.925,97.4,2025-07-16T18:11:47.709363,169,3
calm,0,69.315,30.568,0.261,0.116,17.421,36.59,0.065,0.167,9.778,0.787,96.9,2025-07-16T18:11:48.709363,170,3
calm,0,73.047,30.0,0.357,0.174,13.466,36.71,0.053,0.141,9.902,0.68,97.2,2025-07-16T18:11:49.709363,171,3
calm,0,55.0,30.354,0.292,0.107,17.616,36.45,0.144,-0.045,9.752,0.991,97.9,2025-07-16T18:11:50.709363,172,3
calm,0,72.257,65.0,0.381,0.211,14.838,36.72,0.358,-0.471,9.784,0.319,96.8,2025-07-16T18:11:51.709363,173,3
calm,0,71.379,57.295,0.275,0.144,15.805,36.55,0.203,0.039,9.779,0.885,97.3,2025-07-16T18:11:52.709363,174,3
calm,0,70.778,48.87,0.243,0.17,12.631,36.55,-0.163,0.179,9.701,0.126,96.9,2025-07-16T18:11:53.709363,175,3
calm,0,70.484,33.263,0.237,0.16,14.905,36.63,0.008,0.285,9.996,0.549,96.9,2025-07-16T18:11:54.709363,176,3
calm,0,62.602,42.872,0.256,0.062,14.937,36.54,-0.025,0.03,9.821,0.708,97.4,2025-07-16T18:11:55.709363,177,3
calm,0,76.536,53.669,0.271,0.086,15.554,36.37,-0.012,-0.055,9.8,0.887,96.4,2025-07-16T18:11:56.709363,178,3
calm,0,64.232,49.388,0.359,0.046,12.119,36.61,0.036,0.028,9.812,0.904,96.3,2025-07-16T18:11:57.709363,179,3
focused,1,78.34,48.624,0.346,0.042,14.929,36.722,0.009,0.006,9.79,0.787,97.0,2025-07-16T18:11:58.709363,180,3
focused,1,74.41,47.132,0.463,0.047,16.075,36.6,0.014,0.036,9.775,0.307,96.2,2025-07-16T18:11:59.709363,181,3
focused,1,71.73,53.27,0.304,0.07,15.994,36.41,0.047,-0.013,9.725,0.604,96.8,2025-07-16T18:12:00.709363,182,3
focused,1,73.967,45.139,0.421,0.067,12.107,36.43,-0.031,0.088,9.772,0.639,96.9,2025-07-16T18:12:01.709363,183,3
focused,1,80.629,40.73,0.354,0.076,16.55,36.78,0.143,-0.052,9.844,0.681,96.9,2025-07-16T18:12:02.709363,184,3
focused,1,79.849,54.385,0.399,0.021,16.74,36.5,0.001,0.043,9.801,0.464,96.7,2025-07-16T18:12:03.709363,185,3
focused,1,77.554,47.404,0.389,0.051,17.459,36.45,0.05,0.096,9.811,0.717,96.7,2025-07-16T18:12:04.709363,186,3
focused,1,78.461,53.283,0.336,0.061,17.009,36.76,-0.038,0.044,9.813,0.378,97.2,2025-07-16T18:12:05.709363,187,3
focused,1,79.889,50.765,0.509,0.053,13.12,36.55,0.006,0.016,9.799,0.381,95.9,2025-07-16T18:12:06.709363,188,3
focused,1,75.221,49.651,0.412,0.08,13.91,36.59,-0.022,-0.066,9.795,0.454,96.6,2025-07-16T18:12:07.709363,189,3
focused,1,75.154,40.766,0.412,0.052,15.427,36.46,0.007,0.045,9.787,0.984,97.1,2025-07-16T18:12:08.709363,190,3
focused,1,75.597,45.687,0.427,0.012,16.388,36.53,0.011,-0.001,9.801,0.289,96.9,2025-07-16T18:12:09.709363,191,3
focused,1,75.986,49.563,0.384,0.084,16.896,36.65,-0.029,-0.037,9.785,0.476,96.6,2025-07-16T18:12:10.709363,192,3
focused,1,73.433,50.376,0.417,0.048,16.281,36.57,-0.003,-0.007,9.764,0.129,96.8,2025-07-16T18:12:11.709363,193,3
focused,1,70.343,54.062,0.329,0.051,15.077,36.41,-0.049,0.07,9.804,0.63,97.0,2025-07-16T18:12:12.709363,194,3
focused,1,76.111,50.152,0.422,0.05,13.534,36.58,-0.01,0.009,9.796,0.856,97.1,2025-07-16T18:12:13.709363,195,3
focused,1,71.244,52.21,0.342,0.057,18.0,36.57,-0.093,-0.025,9.798,0.815,96.6,2025-07-16T18:12:14.709363,196,3
focused,1,73.274,48.079,0.38,0.06,14.133,36.53,0.051,0.121,9.784,0.997,96.8,2025-07-16T18:12:15.709363,197,3
focused,1,77.833,54.494,0.325,0.081,16.016,36.56,0.073,0.042,9.824,0.554,96.3,2025-07-16T18:12:16.709363,198,3
focused,1,69.823,53.401,0.363,0.044,15.626,36.5,0.008,0.019,9.787,0.369,97.0,2025-07-16T18:12:17.709363,199,3
focused,1,65.277,57.172,0.384,0.071,14.588,36.5,0.033,0.011,9.765,0.863,97.3,2025-07-16T18:12:18.709363,200,3
focused,1,69.681,62.728,0.356,0.06,14.753,36.62,0.008,-0.088,9.793,0.283,96.7,2025-07-16T18:12:19.709363,201,3
focused,1,90.0,44.41,0.412,0.019,15.135,36.67,-0.02,-0.003,9.794,0.13,95.6,2025-07-16T18:12:20.709363,202,3
focused,1,77.027,62.075,0.352,0.044,15.649,36.83,0.024,0.024,9.843,0.153,97.4,2025-07-16T18:12:21.709363,203,3
focused,1,80.536,48.897,0.374,0.067,15.702,36.75,-0.007,0.015,9.797,0.788,96.8,2025-07-16T18:12:22.709363,204,3
focused,1,70.08,65.863,0.343,0.006,12.0,36.42,0.009,-0.002,9.798,0.357,96.5,2025-07-16T18:12:23.709363,205,3
focused,1,65.0,63.459,0.338,0.042,15.21,36.5,-0.011,0.027,9.791,0.124,96.8,2025-07-16T18:12:24.709363,206,3
