emotion,emotion_label,heart_rate,hrv,skin_conductance,movement,respiratory_rate,temperature,acceleration_x,acceleration_y,acceleration_z,ambient_light,blood_oxygen,timestamp,sequence_index,sequence_id
calm,0,62.726,30.0,0.266,0.157,15.446,36.33,0.208,0.058,9.835,0.688,97.1,2025-07-16T19:04:11.497271,0,0
calm,0,75.915,58.669,0.202,0.095,10.098,36.58,-0.132,-0.054,9.75,0.683,96.4,2025-07-16T19:04:12.497271,1,0
calm,0,56.27,45.627,0.205,0.065,13.531,36.34,0.047,0.043,9.781,0.875,98.2,2025-07-16T19:04:13.497271,2,0
calm,0,80.596,51.623,0.402,0.0,15.544,36.51,0.0,0.0,9.8,0.818,96.9,2025-07-16T19:04:14.497271,3,0
calm,0,65.012,56.4,0.325,0.122,14.486,36.69,-0.027,0.027,9.745,0.123,96.4,2025-07-16T19:04:15.497271,4,0
calm,0,76.651,36.701,0.15,0.016,12.822,36.55,-0.021,-0.035,9.794,0.945,97.0,2025-07-16T19:04:16.497271,5,0
calm,0,68.236,50.145,0.453,0.124,15.186,36.57,-0.109,-0.069,9.88,0.293,96.9,2025-07-16T19:04:17.497271,6,0
calm,0,62.343,36.701,0.5,0.085,10.55,36.57,-0.001,0.053,9.832,0.204,96.5,2025-07-16T19:04:18.497271,7,0
calm,0,64.235,46.917,0.323,0.138,17.114,36.36,-0.043,-0.067,9.723,0.823,97.2,2025-07-16T19:04:19.497271,8,0
calm,0,68.276,55.851,0.15,0.076,15.695,36.43,-0.008,0.148,9.777,0.639,97.2,2025-07-16T19:04:20.497271,9,0
calm,0,60.251,52.64,0.263,0.174,16.865,36.68,-0.035,-0.187,9.73,0.481,97.3,2025-07-16T19:04:21.497271,10,0
calm,0,62.47,63.992,0.361,0.109,10.118,36.59,-0.172,-0.179,9.904,0.181,96.7,2025-07-16T19:04:22.497271,11,0
calm,0,72.281,32.641,0.256,0.195,13.686,36.65,0.118,0.025,9.691,0.997,97.1,2025-07-16T19:04:23.497271,12,0
calm,0,58.641,38.689,0.279,0.062,16.309,36.47,-0.065,-0.074,9.763,0.821,97.3,2025-07-16T19:04:24.497271,13,0
calm,0,65.073,38.006,0.316,0.022,13.709,36.31,-0.005,-0.025,9.793,0.484,98.0,2025-07-16T19:04:25.497271,14,0
calm,0,62.583,39.243,0.317,0.05,14.766,36.4,0.004,-0.012,9.802,0.958,98.8,2025-07-16T19:04:26.497271,15,0
calm,0,83.551,52.769,0.34,0.103,13.684,36.59,-0.016,-0.005,9.899,0.416,95.5,2025-07-16T19:04:27.497271,16,0
calm,0,61.736,54.007,0.417,0.092,16.479,36.39,0.089,0.025,9.806,0.937,97.9,2025-07-16T19:04:28.497271,17,0
calm,0,70.9,56.452,0.354,0.115,15.893,36.62,0.043,-0.149,9.753,0.979,96.2,2025-07-16T19:04:29.497271,18,0
calm,0,74.62,52.603,0.178,0.139,14.53,36.48,0.042,-0.11,9.857,0.881,97.3,2025-07-16T19:04:30.497271,19,0
calm,0,70.842,51.212,0.287,0.117,14.34,36.52,-0.055,0.123,9.793,0.757,96.5,2025-07-16T19:04:31.497271,20,0
calm,0,76.071,65.0,0.339,0.065,15.577,36.38,0.003,0.126,9.803,0.762,97.1,2025-07-16T19:04:32.497271,21,0
calm,0,79.453,54.939,0.381,0.122,15.032,36.62,0.097,-0.035,9.748,0.284,96.6,2025-07-16T19:04:33.497271,22,0
calm,0,71.525,35.918,0.354,0.076,14.332,36.77,0.026,0.081,9.802,0.303,97.8,2025-07-16T19:04:34.497271,23,0
calm,0,76.324,40.938,0.27,0.084,13.885,36.63,-0.042,-0.049,9.773,0.821,97.2,2025-07-16T19:04:35.497271,24,0
calm,0,63.618,39.206,0.196,0.099,15.403,36.5,0.214,-0.058,9.728,0.945,96.7,2025-07-16T19:04:36.497271,25,0
calm,0,66.874,35.591,0.325,0.141,15.844,36.58,0.038,0.105,9.866,0.597,97.3,2025-07-16T19:04:37.497271,26,0
calm,0,82.656,30.0,0.273,0.0,12.329,36.83,0.0,0.0,9.8,0.707,96.4,2025-07-16T19:04:38.497271,27,0
calm,0,64.033,56.214,0.36,0.16,14.978,36.52,0.14,0.356,9.702,0.717,97.2,2025-07-16T19:04:39.497271,28,0
calm,0,75.35,40.789,0.282,0.124,18.0,36.56,-0.025,-0.184,9.716,0.15,97.5,2025-07-16T19:04:40.497271,29,0
calm,0,60.002,53.174,0.316,0.104,11.598,36.4,0.07,0.057,9.729,0.72,97.5,2025-07-16T19:04:41.497271,30,0
calm,0,70.066,53.788,0.246,0.143,14.233,36.63,0.125,0.077,9.746,0.396,97.8,2025-07-16T19:04:42.497271,31,0
calm,0,78.561,42.941,0.24,0.147,12.024,36.74,0.336,0.008,9.814,0.909,97.3,2025-07-16T19:04:43.497271,32,0
calm,0,77.342,42.018,0.314,0.081,13.677,36.66,0.098,-0.023,9.87,0.407,97.3,2025-07-16T19:04:44.497271,33,0
calm,0,79.201,32.316,0.394,0.199,14.406,36.62,0.308,0.004,9.727,0.243,96.9,2025-07-16T19:04:45.497271,34,0
calm,0,64.503,47.811,0.345,0.165,13.635,36.35,0.212,0.075,9.808,0.186,98.7,2025-07-16T19:04:46.497271,35,0
calm,0,72.056,45.418,0.448,0.145,13.001,36.69,0.057,-0.093,9.834,0.865,97.0,2025-07-16T19:04:47.497271,36,0
calm,0,68.427,51.755,0.375,0.188,14.953,36.54,0.221,-0.072,9.761,0.987,97.5,2025-07-16T19:04:48.497271,37,0
calm,0,67.413,65.0,0.266,0.037,15.451,36.64,0.019,-0.001,9.78,0.176,97.6,2025-07-16T19:04:49.497271,38,0
calm,0,74.204,34.196,0.386,0.125,12.311,36.69,-0.074,-0.113,9.754,0.937,97.5,2025-07-16T19:04:50.497271,39,0
calm,0,62.181,43.878,0.324,0.144,11.459,36.56,-0.028,0.153,9.762,0.898,97.5,2025-07-16T19:04:51.497271,40,0
calm,0,65.399,34.878,0.281,0.197,18.0,36.41,-0.16,0.077,9.854,0.943,97.9,2025-07-16T19:04:52.497271,41,0
calm,0,58.993,50.015,0.398,0.144,15.8,36.37,-0.047,0.148,9.927,0.301,96.5,2025-07-16T19:04:53.497271,42,0
calm,0,63.117,36.547,0.252,0.191,17.258,36.45,0.24,0.17,9.837,0.113,96.2,2025-07-16T19:04:54.497271,43,0
calm,0,64.55,30.409,0.204,0.091,14.417,36.52,0.073,-0.003,9.775,0.378,97.1,2025-07-16T19:04:55.497271,44,0
calm,0,75.956,49.253,0.375,0.159,10.478,36.67,0.064,-0.131,9.935,0.268,96.5,2025-07-16T19:04:56.497271,45,0
calm,0,73.025,33.261,0.303,0.097,14.954,36.55,-0.029,0.094,9.769,0.638,98.2,2025-07-16T19:04:57.497271,46,0
calm,0,72.043,39.444,0.362,0.064,11.972,36.33,-0.029,-0.017,9.8,0.624,97.0,2025-07-16T19:04:58.497271,47,0
calm,0,67.197,53.251,0.359,0.093,15.838,36.47,0.125,0.061,9.849,0.986,96.9,2025-07-16T19:04:59.497271,48,0
calm,0,62.193,48.937,0.3,0.103,11.263,36.44,-0.01,0.048,9.768,0.879,97.2,2025-07-16T19:05:00.497271,49,0
calm,0,69.24,53.192,0.345,0.112,12.501,36.44,-0.091,0.025,9.793,0.971,96.3,2025-07-16T19:05:01.497271,50,0
calm,0,71.518,36.437,0.339,0.069,13.751,36.49,-0.002,0.142,9.861,0.24,97.1,2025-07-16T19:05:02.497271,51,0
calm,0,63.774,49.226,0.5,0.106,10.0,36.52,-0.035,0.026,9.788,0.164,97.8,2025-07-16T19:05:03.497271,52,0
calm,0,76.76,41.768,0.22,0.115,13.508,36.49,0.122,0.254,9.886,0.852,96.8,2025-07-16T19:05:04.497271,53,0
calm,0,67.067,48.058,0.285,0.123,12.645,36.22,-0.111,0.13,9.738,0.108,97.2,2025-07-16T19:05:05.497271,54,0
calm,0,70.766,47.141,0.47,0.088,13.421,36.67,0.034,-0.021,9.882,0.273,97.1,2025-07-16T19:05:06.497271,55,0
calm,0,78.483,60.692,0.309,0.0,13.304,36.47,0.0,0.0,9.8,0.46,96.6,2025-07-16T19:05:07.497271,56,0
calm,0,68.945,55.625,0.335,0.117,14.272,36.48,0.157,0.004,9.823,0.645,96.9,2025-07-16T19:05:08.497271,57,0
calm,0,69.8,52.658,0.327,0.057,15.726,36.55,-0.007,-0.025,9.83,0.282,97.1,2025-07-16T19:05:09.497271,58,0
calm,0,78.847,47.702,0.293,0.024,13.271,36.6,0.009,0.004,9.823,0.716,96.1,2025-07-16T19:05:10.497271,59,0
calm,0,77.822,56.098,0.151,0.082,15.15,36.57,-0.065,0.054,9.836,0.924,96.3,2025-07-16T19:05:11.497271,60,0
calm,0,66.481,30.0,0.235,0.081,16.267,36.42,-0.014,-0.081,9.792,0.171,97.6,2025-07-16T19:05:12.497271,61,0
calm,0,64.02,36.02,0.285,0.126,15.092,36.72,-0.039,0.032,9.837,0.641,97.4,2025-07-16T19:05:13.497271,62,0
calm,0,68.449,46.508,0.349,0.174,16.508,36.55,0.04,0.016,9.822,0.937,96.9,2025-07-16T19:05:14.497271,63,0
calm,0,55.074,57.789,0.19,0.089,14.207,36.39,-0.055,-0.161,9.851,0.821,98.4,2025-07-16T19:05:15.497271,64,0
calm,0,64.572,53.683,0.305,0.247,14.297,36.54,-0.11,0.039,9.712,0.134,96.7,2025-07-16T19:05:16.497271,65,0
calm,0,70.978,59.091,0.374,0.062,14.35,36.53,0.042,-0.115,9.767,0.83,96.8,2025-07-16T19:05:17.497271,66,0
calm,0,68.788,56.016,0.298,0.136,14.703,36.46,-0.007,-0.183,9.688,0.939,97.0,2025-07-16T19:05:18.497271,67,0
calm,0,76.563,30.029,0.391,0.066,14.31,36.5,0.055,-0.002,9.827,0.741,97.0,2025-07-16T19:05:19.497271,68,0
calm,0,73.949,33.462,0.462,0.112,13.597,36.65,0.049,-0.025,9.779,0.868,97.3,2025-07-16T19:05:20.497271,69,0
calm,0,74.409,36.373,0.408,0.166,17.9,36.73,-0.098,-0.04,9.806,0.169,97.6,2025-07-16T19:05:21.497271,70,0
calm,0,75.881,31.398,0.302,0.073,13.432,36.75,0.072,0.103,9.823,0.502,96.8,2025-07-16T19:05:22.497271,71,0
calm,0,65.331,37.404,0.367,0.139,10.751,36.51,0.071,-0.168,9.757,0.904,97.7,2025-07-16T19:05:23.497271,72,0
calm,0,64.838,35.29,0.302,0.001,16.724,36.48,0.0,0.001,9.8,0.832,96.5,2025-07-16T19:05:24.497271,73,0
calm,0,64.258,30.269,0.15,0.067,14.887,36.44,-0.061,0.042,9.84,0.799,98.1,2025-07-16T19:05:25.497271,74,0
calm,0,66.597,51.525,0.313,0.123,18.0,36.52,-0.18,0.05,9.709,0.44,96.6,2025-07-16T19:05:26.497271,75,0
calm,0,69.009,45.584,0.287,0.124,15.171,36.36,0.017,-0.101,9.863,0.698,97.7,2025-07-16T19:05:27.497271,76,0
calm,0,85.0,44.199,0.207,0.076,14.206,36.77,0.051,0.025,9.718,0.523,96.8,2025-07-16T19:05:28.497271,77,0
calm,0,66.695,41.991,0.273,0.162,11.694,36.79,-0.32,-0.176,9.755,0.715,96.8,2025-07-16T19:05:29.497271,78,0
calm,0,68.958,65.0,0.304,0.058,12.791,36.52,0.002,-0.017,9.81,0.316,97.4,2025-07-16T19:05:30.497271,79,0
calm,0,81.943,39.675,0.296,0.154,10.812,36.59,-0.129,-0.027,9.851,0.892,97.2,2025-07-16T19:05:31.497271,80,0
calm,0,75.427,46.967,0.371,0.035,12.221,36.53,-0.0,0.021,9.78,0.303,96.1,2025-07-16T19:05:32.497271,81,0
calm,0,66.021,41.223,0.254,0.107,15.297,36.39,-0.034,0.063,9.785,0.562,97.2,2025-07-16T19:05:33.497271,82,0
calm,0,73.121,37.271,0.304,0.086,13.23,36.75,0.126,-0.056,9.75,0.36,96.3,2025-07-16T19:05:34.497271,83,0
calm,0,70.422,49.602,0.227,0.08,12.068,36.62,0.096,-0.038,9.809,0.373,97.6,2025-07-16T19:05:35.497271,84,0
calm,0,56.242,38.01,0.27,0.059,16.242,36.47,-0.003,-0.007,9.732,0.358,97.8,2025-07-16T19:05:36.497271,85,0
calm,0,68.422,48.65,0.284,0.0,13.39,36.31,0.0,0.0,9.8,0.591,97.3,2025-07-16T19:05:37.497271,86,0
calm,0,59.569,37.805,0.214,0.099,13.074,36.29,-0.138,0.158,9.913,0.286,97.6,2025-07-16T19:05:38.497271,87,0
calm,0,71.751,43.43,0.199,0.156,18.0,36.56,-0.254,0.235,9.906,0.14,97.0,2025-07-16T19:05:39.497271,88,0
calm,0,78.188,42.493,0.261,0.171,14.886,36.52,-0.04,0.052,9.749,0.463,96.6,2025-07-16T19:05:40.497271,89,0
calm,0,69.646,41.292,0.24,0.103,14.97,36.56,-0.098,-0.015,9.703,0.613,96.6,2025-07-16T19:05:41.497271,90,0
calm,0,68.7,30.349,0.294,0.094,16.351,36.56,-0.037,0.117,9.807,0.948,97.4,2025-07-16T19:05:42.497271,91,0
calm,0,57.45,45.565,0.342,0.039,13.255,36.45,0.016,0.044,9.779,0.561,97.4,2025-07-16T19:05:43.497271,92,0
calm,0,71.114,35.685,0.198,0.176,17.534,36.65,-0.32,-0.119,9.871,0.798,97.9,2025-07-16T19:05:44.497271,93,0
calm,0,55.0,39.506,0.2,0.155,14.787,36.58,0.22,0.108,9.697,0.663,98.0,2025-07-16T19:05:45.497271,94,0
calm,0,67.406,45.2,0.298,0.102,12.07,36.39,-0.096,-0.06,9.808,0.601,96.8,2025-07-16T19:05:46.497271,95,0
calm,0,70.339,51.451,0.272,0.0,11.853,36.5,0.0,0.0,9.8,0.796,96.6,2025-07-16T19:05:47.497271,96,0
calm,0,71.581,47.202,0.318,0.039,14.83,36.54,0.006,-0.008,9.788,0.605,96.7,2025-07-16T19:05:48.497271,97,0
calm,0,73.885,55.991,0.226,0.057,10.0,36.69,0.011,-0.018,9.779,0.9,97.5,2025-07-16T19:05:49.497271,98,0
calm,0,85.0,41.221,0.185,0.125,10.961,36.71,0.088,0.175,9.836,0.347,97.1,2025-07-16T19:05:50.497271,99,0
calm,0,81.246,45.375,0.359,0.105,12.232,36.62,-0.095,0.02,9.919,0.746,96.5,2025-07-16T19:05:51.497271,100,0
calm,0,62.046,38.446,0.376,0.124,12.865,36.37,-0.01,0.151,9.74,0.451,97.8,2025-07-16T19:05:52.497271,101,0
calm,0,71.031,40.292,0.337,0.103,14.423,36.61,-0.016,-0.081,9.86,0.635,97.1,2025-07-16T19:05:53.497271,102,0
calm,0,72.51,30.0,0.218,0.017,16.303,36.44,-0.024,-0.013,9.804,0.793,97.8,2025-07-16T19:05:54.497271,103,0
calm,0,55.315,32.642,0.405,0.125,10.925,36.29,-0.065,-0.153,9.78,0.785,96.9,2025-07-16T19:05:55.497271,104,0
calm,0,72.823,64.207,0.278,0.038,14.73,36.73,-0.035,-0.03,9.8,0.968,97.0,2025-07-16T19:05:56.497271,105,0
calm,0,70.049,43.504,0.31,0.105,14.338,36.27,-0.025,0.174,9.781,0.809,96.4,2025-07-16T19:05:57.497271,106,0
calm,0,70.015,41.689,0.302,0.115,12.82,36.46,-0.227,0.03,9.792,0.671,97.8,2025-07-16T19:05:58.497271,107,0
calm,0,68.023,42.468,0.32,0.039,15.241,36.54,-0.033,0.009,9.765,0.104,96.7,2025-07-16T19:05:59.497271,108,0
calm,0,82.903,43.792,0.223,0.0,10.316,36.52,0.0,0.0,9.8,0.635,97.4,2025-07-16T19:06:00.497271,109,0
calm,0,77.14,37.676,0.231,0.121,14.323,36.7,-0.022,0.02,9.881,0.631,97.3,2025-07-16T19:06:01.497271,110,0
calm,0,58.601,37.945,0.24,0.055,11.818,36.38,0.054,0.008,9.77,0.915,96.8,2025-07-16T19:06:02.497271,111,0
calm,0,63.819,52.999,0.433,0.033,15.046,36.43,-0.021,0.008,9.762,0.217,97.3,2025-07-16T19:06:03.497271,112,0
calm,0,72.351,44.941,0.298,0.178,12.765,36.53,-0.139,0.002,9.741,0.114,96.8,2025-07-16T19:06:04.497271,113,0
calm,0,82.548,55.247,0.415,0.132,15.076,36.74,-0.018,0.203,9.906,0.351,95.9,2025-07-16T19:06:05.497271,114,0
calm,0,79.306,50.258,0.295,0.132,10.465,36.51,-0.063,0.025,9.736,0.842,97.1,2025-07-16T19:06:06.497271,115,0
calm,0,85.0,42.026,0.26,0.112,15.932,36.77,0.058,0.048,9.877,0.192,96.2,2025-07-16T19:06:07.497271,116,0
calm,0,75.709,46.966,0.215,0.139,14.447,36.51,-0.079,-0.072,9.782,0.677,97.5,2025-07-16T19:06:08.497271,117,0
calm,0,57.101,33.907,0.261,0.058,13.303,36.42,-0.024,0.006,9.823,0.218,97.4,2025-07-16T19:06:09.497271,118,0
calm,0,63.029,35.359,0.281,0.068,11.161,36.5,0.051,0.051,9.811,0.462,97.1,2025-07-16T19:06:10.497271,119,0
calm,0,58.848,46.787,0.321,0.127,12.729,36.35,0.006,-0.009,9.84,0.114,97.5,2025-07-16T19:06:11.497271,120,0
calm,0,85.0,30.0,0.239,0.067,10.0,36.66,-0.018,-0.041,9.775,0.997,97.6,2025-07-16T19:06:12.497271,121,0
calm,0,57.405,46.328,0.198,0.018,15.936,36.17,-0.011,-0.023,9.811,0.58,97.4,2025-07-16T19:06:13.497271,122,0
calm,0,59.321,54.833,0.276,0.171,11.326,36.4,0.136,0.336,9.666,0.468,97.5,2025-07-16T19:06:14.497271,123,0
calm,0,83.446,47.353,0.378,0.074,13.205,36.54,0.009,-0.049,9.809,0.617,95.0,2025-07-16T19:06:15.497271,124,0
calm,0,66.569,39.631,0.283,0.1,16.16,36.43,-0.112,0.017,9.807,0.561,96.5,2025-07-16T19:06:16.497271,125,0
calm,0,57.667,42.215,0.242,0.044,13.424,36.36,-0.04,0.005,9.774,0.166,98.2,2025-07-16T19:06:17.497271,126,0
calm,0,66.284,61.012,0.246,0.134,11.626,36.79,-0.033,0.07,9.766,0.714,96.5,2025-07-16T19:06:18.497271,127,0
calm,0,71.367,39.646,0.268,0.096,17.227,36.62,-0.04,-0.073,9.721,0.975,96.5,2025-07-16T19:06:19.497271,128,0
calm,0,64.759,48.749,0.313,0.071,12.929,36.48,-0.047,-0.058,9.808,0.185,98.1,2025-07-16T19:06:20.497271,129,0
calm,0,76.038,30.884,0.424,0.012,11.537,36.49,-0.014,0.006,9.807,0.942,96.7,2025-07-16T19:06:21.497271,130,0
calm,0,60.766,43.834,0.33,0.158,14.367,36.52,-0.213,-0.277,9.846,0.826,97.0,2025-07-16T19:06:22.497271,131,0
calm,0,58.548,37.882,0.343,0.058,15.353,36.36,-0.044,0.002,9.728,0.488,97.3,2025-07-16T19:06:23.497271,132,0
calm,0,70.268,59.233,0.329,0.133,12.732,36.54,-0.016,-0.074,9.643,0.844,97.2,2025-07-16T19:06:24.497271,133,0
calm,0,74.699,35.897,0.334,0.072,13.049,36.4,0.1,-0.04,9.749,0.322,96.7,2025-07-16T19:06:25.497271,134,0
calm,0,72.82,38.022,0.433,0.095,14.051,36.44,-0.142,-0.019,9.81,0.164,97.0,2025-07-16T19:06:26.497271,135,0
calm,0,65.792,48.875,0.275,0.024,14.438,36.5,0.01,0.042,9.799,0.257,96.6,2025-07-16T19:06:27.497271,136,0
calm,0,69.546,58.624,0.226,0.217,12.738,36.52,0.082,0.084,9.611,0.372,98.0,2025-07-16T19:06:28.497271,137,0
calm,0,77.018,42.416,0.292,0.069,14.408,36.66,0.021,0.078,9.82,0.671,97.2,2025-07-16T19:06:29.497271,138,0
calm,0,73.239,50.214,0.259,0.057,15.046,36.44,0.02,0.053,9.827,0.223,96.8,2025-07-16T19:06:30.497271,139,0
calm,0,76.028,50.298,0.171,0.122,13.186,36.6,-0.185,-0.086,9.83,0.799,96.4,2025-07-16T19:06:31.497271,140,0
calm,0,72.243,35.654,0.464,0.208,14.829,36.62,0.082,0.062,9.946,0.729,96.8,2025-07-16T19:06:32.497271,141,0
calm,0,71.686,39.397,0.188,0.071,15.687,36.65,-0.027,-0.063,9.814,0.325,97.1,2025-07-16T19:06:33.497271,142,0
calm,0,59.043,58.901,0.267,0.012,11.072,36.46,-0.006,0.01,9.789,0.778,98.0,2025-07-16T19:06:34.497271,143,0
calm,0,70.63,44.591,0.305,0.091,14.021,36.6,0.021,-0.102,9.808,0.551,97.8,2025-07-16T19:06:35.497271,144,0
calm,0,72.842,44.417,0.276,0.097,15.022,36.72,0.203,0.189,9.746,0.655,96.5,2025-07-16T19:06:36.497271,145,0
calm,0,66.008,52.527,0.298,0.101,14.643,36.39,-0.188,0.149,9.77,0.473,96.0,2025-07-16T19:06:37.497271,146,0
calm,0,83.48,33.064,0.285,0.094,13.99,36.69,-0.168,-0.177,9.711,0.79,96.3,2025-07-16T19:06:38.497271,147,0
calm,0,64.791,30.988,0.325,0.074,15.482,36.63,-0.024,-0.082,9.842,0.722,96.5,2025-07-16T19:06:39.497271,148,0
calm,0,72.759,50.161,0.347,0.055,10.0,36.39,-0.05,0.032,9.802,0.22,97.2,2025-07-16T19:06:40.497271,149,0
calm,0,63.701,33.749,0.271,0.101,14.156,36.58,-0.078,-0.027,9.792,0.392,96.4,2025-07-16T19:06:41.497271,150,0
calm,0,66.115,54.901,0.275,0.091,10.117,36.69,-0.046,-0.117,9.746,0.775,97.6,2025-07-16T19:06:42.497271,151,0
calm,0,69.972,42.419,0.423,0.174,15.59,36.58,0.037,-0.07,9.832,0.168,97.2,2025-07-16T19:06:43.497271,152,0
calm,0,68.23,43.404,0.274,0.034,12.374,36.5,0.004,-0.024,9.812,0.94,96.7,2025-07-16T19:06:44.497271,153,0
calm,0,66.081,49.705,0.251,0.17,13.571,36.75,-0.056,-0.078,9.643,0.973,97.2,2025-07-16T19:06:45.497271,154,0
calm,0,73.389,49.526,0.273,0.148,14.434,36.75,-0.078,0.034,9.798,0.259,96.8,2025-07-16T19:06:46.497271,155,0
calm,0,68.062,48.688,0.498,0.0,12.058,36.45,0.0,0.0,9.8,0.737,96.5,2025-07-16T19:06:47.497271,156,0
calm,0,64.006,50.757,0.239,0.008,11.837,36.61,0.001,-0.017,9.796,0.346,97.7,2025-07-16T19:06:48.497271,157,0
calm,0,64.808,51.773,0.37,0.098,12.237,36.52,0.047,-0.031,9.89,0.874,97.2,2025-07-16T19:06:49.497271,158,0
calm,0,62.738,62.337,0.407,0.161,13.213,36.61,-0.203,-0.157,9.623,0.414,97.3,2025-07-16T19:06:50.497271,159,0
calm,0,55.551,62.256,0.29,0.119,12.898,36.59,-0.086,0.066,9.736,0.131,97.8,2025-07-16T19:06:51.497271,160,0
calm,0,67.057,55.709,0.302,0.098,15.685,36.41,-0.041,-0.11,9.801,0.517,96.7,2025-07-16T19:06:52.497271,161,0
calm,0,71.65,58.179,0.372,0.127,13.686,36.58,0.087,-0.053,9.763,0.33,97.1,2025-07-16T19:06:53.497271,162,0
calm,0,70.018,49.499,0.307,0.114,12.357,36.64,0.076,-0.067,9.833,0.17,96.5,2025-07-16T19:06:54.497271,163,0
calm,0,70.287,43.675,0.356,0.12,15.136,36.64,0.005,-0.002,9.773,0.439,97.0,2025-07-16T19:06:55.497271,164,0
calm,0,75.154,53.442,0.348,0.209,13.492,36.55,0.104,-0.063,9.858,0.896,97.1,2025-07-16T19:06:56.497271,165,0
calm,0,84.204,42.184,0.376,0.112,14.325,36.67,0.102,-0.128,9.886,0.41,97.1,2025-07-16T19:06:57.497271,166,0
calm,0,69.43,59.49,0.248,0.022,13.695,36.65,-0.039,0.018,9.794,0.534,97.1,2025-07-16T19:06:58.497271,167,0
calm,0,73.893,46.125,0.313,0.102,16.216,36.78,0.05,0.061,9.829,0.146,96.1,2025-07-16T19:06:59.497271,168,0
calm,0,62.583,48.278,0.464,0.09,16.263,36.39,-0.159,0.195,9.811,0.313,97.7,2025-07-16T19:07:00.497271,169,0
calm,0,75.866,30.86,0.337,0.146,14.095,36.83,0.088,0.178,9.807,0.752,97.6,2025-07-16T19:07:01.497271,170,0
calm,0,65.767,42.624,0.334,0.088,10.715,36.52,0.002,-0.068,9.799,0.253,97.8,2025-07-16T19:07:02.497271,171,0
calm,0,65.276,42.954,0.228,0.116,17.324,36.39,0.067,0.068,9.767,0.118,96.6,2025-07-16T19:07:03.497271,172,0
calm,0,60.915,49.139,0.369,0.178,12.914,36.51,0.095,0.155,9.623,0.138,97.7,2025-07-16T19:07:04.497271,173,0
calm,0,74.933,48.872,0.413,0.182,14.91,36.54,0.086,0.04,9.78,0.223,97.1,2025-07-16T19:07:05.497271,174,0
calm,0,79.226,57.775,0.347,0.079,11.835,36.65,-0.027,-0.04,9.786,0.306,96.8,2025-07-16T19:07:06.497271,175,0
calm,0,66.219,50.319,0.411,0.186,17.922,36.49,-0.165,-0.161,9.811,0.356,97.1,2025-07-16T19:07:07.497271,176,0
calm,0,70.863,44.038,0.252,0.117,13.995,36.71,-0.016,-0.268,9.707,0.927,97.9,2025-07-16T19:07:08.497271,177,0
calm,0,55.0,48.757,0.311,0.082,16.737,36.49,-0.08,0.17,9.859,0.436,97.9,2025-07-16T19:07:09.497271,178,0
calm,0,59.946,50.709,0.366,0.098,16.258,36.39,0.063,-0.186,9.806,0.113,97.5,2025-07-16T19:07:10.497271,179,0
focused,1,63.484,55.295,0.346,0.058,16.088,36.516,0.046,0.005,9.829,0.987,97.8,2025-07-16T19:07:11.497271,180,0
focused,1,75.024,44.764,0.408,0.063,13.595,36.39,-0.049,0.022,9.821,0.141,96.9,2025-07-16T19:07:12.497271,181,0
focused,1,71.418,47.783,0.474,0.048,16.538,36.5,0.021,-0.057,9.844,0.533,96.4,2025-07-16T19:07:13.497271,182,0
focused,1,65.076,35.0,0.317,0.055,14.926,36.56,-0.022,0.053,9.773,0.92,97.9,2025-07-16T19:07:14.497271,183,0
focused,1,73.133,48.542,0.391,0.061,14.886,36.74,0.072,-0.081,9.753,0.281,96.8,2025-07-16T19:07:15.497271,184,0
focused,1,75.499,49.051,0.438,0.053,15.702,36.67,-0.073,0.05,9.823,0.682,96.6,2025-07-16T19:07:16.497271,185,0
focused,1,69.266,54.469,0.442,0.043,16.184,36.5,-0.006,-0.002,9.799,0.451,97.1,2025-07-16T19:07:17.497271,186,0
focused,1,73.715,53.158,0.519,0.05,14.118,36.6,0.032,0.026,9.819,0.358,96.5,2025-07-16T19:07:18.497271,187,0
focused,1,80.6,36.289,0.483,0.054,13.67,36.74,-0.002,-0.021,9.779,0.205,95.7,2025-07-16T19:07:19.497271,188,0
focused,1,88.532,41.895,0.425,0.023,17.156,36.75,0.005,0.04,9.797,0.915,95.7,2025-07-16T19:07:20.497271,189,0
focused,1,76.091,45.294,0.476,0.076,16.01,36.64,0.051,-0.088,9.761,0.304,96.3,2025-07-16T19:07:21.497271,190,0
focused,1,74.429,35.171,0.419,0.073,14.182,36.58,0.027,-0.032,9.758,0.27,96.4,2025-07-16T19:07:22.497271,191,0
focused,1,69.402,51.382,0.418,0.06,17.737,36.49,-0.018,-0.043,9.77,0.746,97.1,2025-07-16T19:07:23.497271,192,0
focused,1,73.753,52.941,0.394,0.038,15.605,36.5,-0.038,0.008,9.799,0.679,97.0,2025-07-16T19:07:24.497271,193,0
focused,1,70.61,48.371,0.385,0.051,16.166,36.57,0.037,-0.062,9.842,0.51,96.9,2025-07-16T19:07:25.497271,194,0
focused,1,76.168,45.615,0.313,0.102,14.101,36.62,-0.097,-0.042,9.722,0.308,97.5,2025-07-16T19:07:26.497271,195,0
focused,1,65.0,36.288,0.34,0.054,15.43,36.46,0.004,-0.028,9.877,0.129,96.5,2025-07-16T19:07:27.497271,196,0
focused,1,69.339,50.855,0.51,0.029,14.996,36.52,-0.037,-0.011,9.808,0.375,96.3,2025-07-16T19:07:28.497271,197,0
focused,1,75.167,46.739,0.498,0.066,14.669,36.54,0.014,0.093,9.851,0.294,96.5,2025-07-16T19:07:29.497271,198,0
focused,1,83.117,42.27,0.441,0.013,14.034,36.6,0.0,-0.017,9.811,0.884,95.6,2025-07-16T19:07:30.497271,199,0
focused,1,76.346,35.0,0.403,0.007,16.627,36.56,0.005,-0.0,9.801,0.961,97.8,2025-07-16T19:07:31.497271,200,0
focused,1,80.232,45.83,0.397,0.046,14.57,36.69,-0.026,-0.027,9.794,0.479,96.5,2025-07-16T19:07:32.497271,201,0
focused,1,75.961,60.835,0.393,0.074,16.178,36.7,0.01,-0.069,9.876,0.826,96.3,2025-07-16T19:07:33.497271,202,0
focused,1,75.574,59.962,0.442,0.056,12.679,36.55,-0.054,0.005,9.768,0.515,97.3,2025-07-16T19:07:34.497271,203,0
focused,1,75.267,46.699,0.351,0.037,13.958,36.51,0.006,0.003,9.783,0.324,96.8,2025-07-16T19:07:35.497271,204,0
focused,1,81.538,55.914,0.453,0.079,12.0,36.5,0.076,-0.131,9.787,0.169,96.2,2025-07-16T19:07:36.497271,205,0
focused,1,76.63,51.111,0.372,0.072,14.248,36.54,0.077,0.04,9.823,0.522,96.8,2025-07-16T19:07:37.497271,206,0
focused,1,73.705,64.172,0.469,0.052,13.104,36.41,0.008,-0.009,9.805,0.172,97.1,2025-07-16T19:07:38.497271,207,0
focused,1,88.415,67.51,0.45,0.045,13.983,36.7,0.003,-0.083,9.783,0.23,96.4,2025-07-16T19:07:39.497271,208,0
focused,1,72.947,43.942,0.491,0.05,12.0,36.57,-0.007,-0.036,9.731,0.914,96.7,2025-07-16T19:07:40.497271,209,0
focused,1,82.722,54.939,0.468,0.084,16.298,36.47,-0.004,0.096,9.721,0.442,97.0,2025-07-16T19:07:41.497271,210,0
focused,1,90.0,45.696,0.448,0.058,13.735,36.77,0.043,0.054,9.781,0.317,96.4,2025-07-16T19:07:42.497271,211,0
focused,1,83.396,45.795,0.418,0.112,14.404,36.63,-0.027,0.17,9.816,0.822,96.0,2025-07-16T19:07:43.497271,212,0
focused,1,80.069,47.5,0.513,0.019,17.471,36.57,0.007,-0.012,9.805,0.665,95.8,2025-07-16T19:07:44.497271,213,0
focused,1,83.538,43.669,0.355,0.063,13.15,36.45,0.117,-0.01,9.83,0.89,96.1,2025-07-16T19:07:45.497271,214,0
focused,1,72.982,35.041,0.396,0.046,14.937,36.61,0.043,-0.039,9.81,0.19,97.0,2025-07-16T19:07:46.497271,215,0
focused,1,68.341,41.38,0.475,0.039,15.357,36.59,0.06,0.041,9.803,0.667,96.6,2025-07-16T19:07:47.497271,216,0
focused,1,75.768,45.671,0.444,0.032,15.258,36.62,-0.024,-0.044,9.78,0.561,96.2,2025-07-16T19:07:48.497271,217,0
focused,1,76.68,70.0,0.322,0.076,15.253,36.44,-0.052,0.057,9.787,0.877,97.1,2025-07-16T19:07:49.497271,218,0
focused,1,70.192,42.525,0.39,0.037,12.291,36.39,0.059,0.011,9.811,0.596,96.7,2025-07-16T19:07:50.497271,219,0
focused,1,77.869,56.804,0.381,0.054,14.206,36.5,-0.056,-0.033,9.811,0.773,96.7,2025-07-16T19:07:51.497271,220,0
focused,1,70.501,47.121,0.311,0.04,14.745,36.44,-0.015,0.036,9.776,0.859,97.1,2025-07-16T19:07:52.497271,221,0
focused,1,77.964,52.179,0.38,0.076,15.888,36.59,0.032,-0.093,9.745,0.799,97.4,2025-07-16T19:07:53.497271,222,0
focused,1,72.156,49.473,0.394,0.003,14.56,36.65,-0.002,-0.001,9.8,0.7,97.2,2025-07-16T19:07:54.497271,223,0
focused,1,66.707,59.662,0.402,0.041,12.809,36.48,-0.091,0.036,9.736,0.421,96.4,2025-07-16T19:07:55.497271,224,0
focused,1,75.926,52.406,0.353,0.046,12.0,36.61,-0.01,0.078,9.791,0.434,97.2,2025-07-16T19:07:56.497271,225,0
focused,1,76.045,49.158,0.407,0.066,13.411,36.67,0.079,0.013,9.772,0.741,96.9,2025-07-16T19:07:57.497271,226,0
focused,1,75.829,46.878,0.46,0.05,15.635,36.54,-0.001,-0.087,9.768,0.286,95.9,2025-07-16T19:07:58.497271,227,0
focused,1,76.631,62.818,0.372,0.033,16.108,36.53,0.019,0.013,9.784,0.883,96.9,2025-07-16T19:07:59.497271,228,0
focused,1,67.949,46.637,0.432,0.011,14.604,36.57,0.001,0.006,9.798,0.617,96.3,2025-07-16T19:08:00.497271,229,0
focused,1,81.995,67.577,0.335,0.05,14.709,36.6,-0.033,0.022,9.8,0.637,96.6,2025-07-16T19:08:01.497271,230,0
focused,1,77.767,44.105,0.301,0.02,15.812,36.52,-0.03,0.0,9.801,0.726,96.1,2025-07-16T19:08:02.497271,231,0
focused,1,72.177,48.453,0.372,0.054,16.68,36.7,-0.006,0.044,9.771,0.1,96.6,2025-07-16T19:08:03.497271,232,0
focused,1,73.981,42.792,0.354,0.075,14.609,36.49,-0.045,0.077,9.807,0.874,96.1,2025-07-16T19:08:04.497271,233,0
focused,1,70.324,45.917,0.442,0.034,13.925,36.48,0.047,-0.016,9.789,0.309,96.8,2025-07-16T19:08:05.497271,234,0
focused,1,73.848,51.953,0.311,0.04,13.404,36.69,0.002,0.021,9.811,0.525,96.4,2025-07-16T19:08:06.497271,235,0
focused,1,71.067,44.773,0.408,0.041,16.089,36.59,-0.011,-0.082,9.797,0.503,97.3,2025-07-16T19:08:07.497271,236,0
focused,1,70.782,50.462,0.275,0.05,13.278,36.57,0.005,0.021,9.784,0.37,96.8,2025-07-16T19:08:08.497271,237,0
focused,1,77.556,48.168,0.274,0.052,14.539,36.6,0.02,0.012,9.816,0.432,96.9,2025-07-16T19:08:09.497271,238,0
focused,1,66.48,41.353,0.394,0.058,17.678,36.61,-0.107,0.072,9.842,0.728,97.7,2025-07-16T19:08:10.497271,239,0
focused,1,77.196,61.472,0.446,0.026,13.926,36.59,-0.006,0.019,9.829,0.118,96.1,2025-07-16T19:08:11.497271,240,0
focused,1,73.891,47.119,0.348,0.064,16.389,36.57,0.059,-0.042,9.847,0.837,96.2,2025-07-16T19:08:12.497271,241,0
focused,1,66.821,41.496,0.378,0.056,15.932,36.58,-0.074,0.057,9.767,0.424,96.7,2025-07-16T19:08:13.497271,242,0
focused,1,72.998,52.169,0.354,0.083,15.894,36.5,-0.052,0.045,9.732,0.501,96.8,2025-07-16T19:08:14.497271,243,0
focused,1,77.595,43.848,0.358,0.057,15.812,36.58,0.02,-0.06,9.802,0.298,96.9,2025-07-16T19:08:15.497271,244,0
focused,1,73.787,41.39,0.361,0.046,15.766,36.48,0.044,0.097,9.796,0.322,95.8,2025-07-16T19:08:16.497271,245,0
focused,1,72.098,49.834,0.36,0.059,12.659,36.55,-0.072,-0.071,9.777,0.124,97.0,2025-07-16T19:08:17.497271,246,0
focused,1,74.245,36.844,0.426,0.04,13.423,36.68,-0.07,-0.062,9.799,0.518,96.3,2025-07-16T19:08:18.497271,247,0
focused,1,79.461,35.964,0.359,0.097,14.35,36.69,-0.053,-0.092,9.843,0.677,96.3,2025-07-16T19:08:19.497271,248,0
focused,1,74.415,48.823,0.322,0.05,16.588,36.63,-0.0,0.036,9.747,0.476,96.7,2025-07-16T19:08:20.497271,249,0
focused,1,74.287,42.175,0.323,0.077,15.21,36.7,0.043,0.012,9.769,0.829,97.1,2025-07-16T19:08:21.497271,250,0
focused,1,77.929,49.266,0.38,0.031,14.608,36.71,-0.014,0.028,9.806,0.526,96.3,2025-07-16T19:08:22.497271,251,0
focused,1,70.851,55.982,0.481,0.077,14.749,36.77,0.049,-0.204,9.772,0.954,96.4,2025-07-16T19:08:23.497271,252,0
focused,1,71.347,67.729,0.396,0.057,14.214,36.42,0.095,0.075,9.802,0.347,97.3,2025-07-16T19:08:24.497271,253,0
focused,1,75.315,50.834,0.376,0.045,17.451,36.75,-0.066,-0.055,9.836,0.116,96.4,2025-07-16T19:08:25.497271,254,0
focused,1,66.664,52.382,0.423,0.06,14.69,36.57,0.06,-0.035,9.829,0.583,96.5,2025-07-16T19:08:26.497271,255,0
focused,1,68.863,58.637,0.349,0.021,17.8,36.57,0.02,0.007,9.783,0.85,96.8,2025-07-16T19:08:27.497271,256,0
focused,1,74.772,52.523,0.364,0.053,14.658,36.53,0.058,0.053,9.785,0.503,96.9,2025-07-16T19:08:28.497271,257,0
focused,1,79.968,49.535,0.443,0.1,14.001,36.75,-0.008,0.123,9.771,0.863,96.3,2025-07-16T19:08:29.497271,258,0
focused,1,76.072,59.202,0.407,0.05,15.816,36.61,0.129,-0.029,9.798,0.59,96.2,2025-07-16T19:08:30.497271,259,0
focused,1,78.178,53.135,0.378,0.05,15.494,36.62,0.015,0.064,9.796,0.859,96.7,2025-07-16T19:08:31.497271,260,0
focused,1,78.881,64.382,0.37,0.099,16.218,36.52,0.006,0.238,9.817,0.904,97.0,2025-07-16T19:08:32.497271,261,0
focused,1,75.236,65.196,0.429,0.0,13.943,36.54,0.0,0.0,9.8,0.878,97.8,2025-07-16T19:08:33.497271,262,0
focused,1,67.598,59.254,0.432,0.0,14.915,36.66,0.0,0.0,9.8,0.36,96.4,2025-07-16T19:08:34.497271,263,0
focused,1,73.701,65.653,0.377,0.062,17.035,36.59,-0.017,0.043,9.823,0.241,96.9,2025-07-16T19:08:35.497271,264,0
focused,1,73.432,40.965,0.51,0.042,15.384,36.52,-0.015,0.062,9.811,0.224,96.7,2025-07-16T19:08:36.497271,265,0
focused,1,80.406,60.352,0.318,0.042,12.702,36.76,0.002,0.083,9.783,0.659,96.0,2025-07-16T19:08:37.497271,266,0
focused,1,80.546,42.994,0.431,0.023,17.68,36.84,-0.007,-0.016,9.79,0.634,96.5,2025-07-16T19:08:38.497271,267,0
focused,1,77.34,48.571,0.386,0.055,14.015,36.54,0.04,0.043,9.814,0.925,96.8,2025-07-16T19:08:39.497271,268,0
focused,1,75.779,46.45,0.381,0.055,17.675,36.48,-0.05,-0.029,9.832,0.503,96.8,2025-07-16T19:08:40.497271,269,0
focused,1,79.22,55.438,0.461,0.059,14.665,36.6,-0.089,-0.018,9.782,0.65,96.9,2025-07-16T19:08:41.497271,270,0
focused,1,80.021,58.217,0.511,0.041,16.798,36.55,-0.051,-0.009,9.787,0.625,96.6,2025-07-16T19:08:42.497271,271,0
focused,1,70.032,47.115,0.313,0.046,14.529,36.44,-0.005,-0.034,9.763,0.475,97.1,2025-07-16T19:08:43.497271,272,0
focused,1,66.026,59.674,0.524,0.037,13.976,36.58,-0.042,0.005,9.809,0.851,96.7,2025-07-16T19:08:44.497271,273,0
focused,1,68.649,60.275,0.522,0.045,13.666,36.53,-0.033,-0.037,9.853,0.598,97.0,2025-07-16T19:08:45.497271,274,0
focused,1,74.395,51.775,0.308,0.05,15.146,36.52,-0.008,0.01,9.806,0.102,97.3,2025-07-16T19:08:46.497271,275,0
focused,1,87.295,52.547,0.353,0.008,16.487,36.63,0.008,0.002,9.804,0.922,96.8,2025-07-16T19:08:47.497271,276,0
focused,1,70.029,60.466,0.353,0.043,16.391,36.55,-0.012,-0.015,9.772,0.979,96.5,2025-07-16T19:08:48.497271,277,0
focused,1,71.935,60.174,0.404,0.087,15.953,36.57,-0.069,-0.101,9.727,0.647,96.3,2025-07-16T19:08:49.497271,278,0
focused,1,74.115,38.023,0.474,0.065,15.314,36.61,0.033,0.077,9.792,0.956,96.7,2025-07-16T19:08:50.497271,279,0
focused,1,79.921,55.732,0.408,0.039,14.293,36.46,0.031,0.038,9.813,0.697,96.8,2025-07-16T19:08:51.497271,280,0
focused,1,77.425,45.435,0.422,0.03,14.462,36.58,-0.026,0.007,9.822,0.669,96.9,2025-07-16T19:08:52.497271,281,0
focused,1,90.0,42.561,0.424,0.047,13.811,36.66,-0.043,0.019,9.833,0.42,96.5,2025-07-16T19:08:53.497271,282,0
focused,1,74.144,58.354,0.339,0.021,14.375,36.67,-0.006,0.011,9.779,0.365,96.5,2025-07-16T19:08:54.497271,283,0
focused,1,72.845,64.589,0.346,0.018,15.01,36.62,-0.007,-0.009,9.792,0.467,96.5,2025-07-16T19:08:55.497271,284,0
focused,1,74.192,48.154,0.25,0.037,17.11,36.46,0.075,-0.022,9.79,0.544,96.3,2025-07-16T19:08:56.497271,285,0
focused,1,87.477,60.147,0.39,0.06,13.618,36.76,0.025,0.057,9.84,0.6,96.2,2025-07-16T19:08:57.497271,286,0
focused,1,77.968,43.319,0.371,0.067,16.462,36.55,-0.005,0.11,9.808,0.587,96.5,2025-07-16T19:08:58.497271,287,0
focused,1,79.426,43.999,0.304,0.052,15.82,36.52,0.089,0.018,9.795,0.296,96.7,2025-07-16T19:08:59.497271,288,0
focused,1,66.776,48.231,0.337,0.069,17.82,36.58,0.024,-0.045,9.788,0.176,97.9,2025-07-16T19:09:00.497271,289,0
focused,1,81.055,40.312,0.436,0.046,13.622,36.53,-0.069,-0.03,9.81,0.452,96.9,2025-07-16T19:09:01.497271,290,0
focused,1,80.862,42.851,0.493,0.01,15.554,36.63,0.019,-0.002,9.8,0.818,95.9,2025-07-16T19:09:02.497271,291,0
focused,1,76.657,47.002,0.316,0.02,14.993,36.53,-0.015,-0.007,9.81,0.583,96.1,2025-07-16T19:09:03.497271,292,0
focused,1,74.453,39.762,0.355,0.052,15.016,36.96,0.028,-0.066,9.8,0.327,97.0,2025-07-16T19:09:04.497271,293,0
focused,1,75.025,42.973,0.419,0.043,15.46,36.65,-0.068,0.081,9.76,0.855,95.4,2025-07-16T19:09:05.497271,294,0
focused,1,78.555,43.735,0.405,0.044,13.745,36.79,-0.003,-0.031,9.792,0.229,96.2,2025-07-16T19:09:06.497271,295,0
focused,1,72.524,42.778,0.467,0.042,13.931,36.62,0.042,0.043,9.799,0.608,96.8,2025-07-16T19:09:07.497271,296,0
focused,1,71.106,42.066,0.371,0.088,15.93,36.42,0.064,0.126,9.774,0.766,96.5,2025-07-16T19:09:08.497271,297,0
focused,1,70.373,50.561,0.353,0.034,14.823,36.33,0.001,0.051,9.786,0.769,96.6,2025-07-16T19:09:09.497271,298,0
focused,1,73.385,37.987,0.493,0.061,15.964,36.6,-0.127,-0.073,9.81,0.277,96.0,2025-07-16T19:09:10.497271,299,0
calm,0,75.059,30.0,0.296,0.087,14.979,36.73,-0.005,-0.108,9.825,0.368,96.8,2025-07-16T19:04:11.552345,0,1
calm,0,71.531,52.651,0.393,0.118,12.495,36.49,0.021,-0.039,9.823,0.489,96.2,2025-07-16T19:04:12.552345,1,1
calm,0,61.194,58.014,0.192,0.137,14.783,36.58,0.169,-0.04,9.819,0.597,97.5,2025-07-16T19:04:13.552345,2,1
calm,0,64.078,30.0,0.359,0.127,13.16,36.41,-0.196,-0.05,9.795,0.729,96.7,2025-07-16T19:04:14.552345,3,1
calm,0,71.821,65.0,0.251,0.14,12.134,36.49,-0.062,-0.093,9.764,0.361,98.0,2025-07-16T19:04:15.552345,4,1
calm,0,75.45,44.17,0.277,0.148,14.783,36.43,-0.053,-0.126,9.676,0.309,97.3,2025-07-16T19:04:16.552345,5,1
calm,0,70.87,30.0,0.286,0.089,13.216,36.52,0.024,-0.044,9.776,0.212,96.4,2025-07-16T19:04:17.552345,6,1
calm,0,76.193,50.382,0.224,0.026,12.534,36.64,-0.032,0.016,9.802,0.956,96.5,2025-07-16T19:04:18.552345,7,1
calm,0,76.13,36.998,0.202,0.179,10.252,36.47,-0.397,-0.426,9.779,0.621,96.6,2025-07-16T19:04:19.552345,8,1
calm,0,58.237,53.541,0.191,0.0,13.522,36.59,0.0,0.0,9.8,0.74,97.7,2025-07-16T19:04:20.552345,9,1
calm,0,84.65,51.751,0.352,0.153,18.0,36.65,0.058,0.102,9.877,0.258,96.5,2025-07-16T19:04:21.552345,10,1
calm,0,73.283,55.141,0.269,0.07,12.777,36.69,-0.035,0.024,9.871,0.885,97.2,2025-07-16T19:04:22.552345,11,1
calm,0,81.692,61.373,0.335,0.04,14.781,36.58,0.051,-0.009,9.824,0.256,96.9,2025-07-16T19:04:23.552345,12,1
calm,0,66.741,39.112,0.279,0.116,12.221,36.59,0.034,-0.043,9.779,0.719,97.5,2025-07-16T19:04:24.552345,13,1
calm,0,67.207,50.177,0.481,0.103,14.632,36.65,-0.204,-0.042,9.836,0.238,97.8,2025-07-16T19:04:25.552345,14,1
calm,0,61.86,46.871,0.33,0.101,15.722,36.59,0.031,-0.004,9.776,0.982,97.5,2025-07-16T19:04:26.552345,15,1
calm,0,75.323,48.653,0.365,0.128,12.007,36.77,-0.178,0.028,9.715,0.99,96.9,2025-07-16T19:04:27.552345,16,1
calm,0,70.276,56.116,0.261,0.081,13.512,36.51,-0.063,-0.1,9.804,0.662,98.5,2025-07-16T19:04:28.552345,17,1
calm,0,55.377,48.862,0.156,0.059,13.464,36.32,0.018,0.021,9.783,0.647,98.6,2025-07-16T19:04:29.552345,18,1
calm,0,76.074,36.27,0.445,0.0,14.421,36.61,0.0,0.0,9.8,0.388,96.0,2025-07-16T19:04:30.552345,19,1
calm,0,58.765,53.21,0.264,0.085,13.149,36.58,0.019,-0.142,9.811,0.692,96.9,2025-07-16T19:04:31.552345,20,1
calm,0,73.984,61.067,0.321,0.0,14.014,36.53,0.0,0.0,9.8,0.239,97.7,2025-07-16T19:04:32.552345,21,1
calm,0,64.584,37.372,0.387,0.011,11.879,36.38,-0.016,0.004,9.803,0.568,97.2,2025-07-16T19:04:33.552345,22,1
calm,0,57.754,30.253,0.376,0.154,13.082,36.45,-0.213,0.092,9.747,0.247,97.2,2025-07-16T19:04:34.552345,23,1
calm,0,66.058,59.714,0.264,0.113,10.906,36.47,0.072,-0.039,9.746,0.149,97.3,2025-07-16T19:04:35.552345,24,1
calm,0,82.817,56.134,0.472,0.109,13.689,36.71,0.04,0.039,9.765,0.226,97.1,2025-07-16T19:04:36.552345,25,1
calm,0,76.441,51.778,0.31,0.039,14.814,36.48,-0.058,0.038,9.788,0.775,96.6,2025-07-16T19:04:37.552345,26,1
calm,0,74.982,30.531,0.335,0.05,10.484,36.73,0.09,0.027,9.802,0.968,97.3,2025-07-16T19:04:38.552345,27,1
calm,0,84.785,30.715,0.29,0.053,12.524,36.78,-0.076,-0.058,9.777,0.85,96.0,2025-07-16T19:04:39.552345,28,1
calm,0,69.728,43.01,0.261,0.073,16.242,36.54,0.18,-0.096,9.799,0.777,97.0,2025-07-16T19:04:40.552345,29,1
calm,0,55.061,42.389,0.293,0.125,10.138,36.48,0.206,-0.053,9.826,0.41,98.0,2025-07-16T19:04:41.552345,30,1
calm,0,68.193,43.421,0.337,0.096,13.578,36.55,-0.011,-0.122,9.823,0.862,97.8,2025-07-16T19:04:42.552345,31,1
calm,0,72.337,34.299,0.294,0.111,13.259,36.68,-0.078,-0.023,9.78,0.79,96.2,2025-07-16T19:04:43.552345,32,1
calm,0,60.096,54.402,0.352,0.031,15.622,36.35,-0.011,0.038,9.806,0.263,97.0,2025-07-16T19:04:44.552345,33,1
calm,0,74.511,31.117,0.289,0.112,15.138,36.45,-0.091,-0.013,9.779,0.843,97.3,2025-07-16T19:04:45.552345,34,1
calm,0,72.781,43.556,0.185,0.112,17.151,36.79,-0.051,-0.201,9.754,0.849,96.3,2025-07-16T19:04:46.552345,35,1
calm,0,85.0,33.261,0.318,0.081,12.838,36.91,0.113,-0.103,9.777,0.349,96.5,2025-07-16T19:04:47.552345,36,1
calm,0,77.627,47.111,0.259,0.198,17.11,36.66,0.236,-0.057,9.788,0.975,97.2,2025-07-16T19:04:48.552345,37,1
calm,0,63.769,47.544,0.223,0.1,12.61,36.53,0.083,-0.032,9.753,0.731,97.4,2025-07-16T19:04:49.552345,38,1
calm,0,66.788,50.094,0.279,0.136,10.382,36.57,-0.07,0.004,9.796,0.456,97.1,2025-07-16T19:04:50.552345,39,1
calm,0,68.658,50.364,0.303,0.109,16.067,36.49,-0.066,0.082,9.825,0.111,96.2,2025-07-16T19:04:51.552345,40,1
calm,0,58.63,44.913,0.232,0.099,14.651,36.31,0.127,0.1,9.767,0.309,97.0,2025-07-16T19:04:52.552345,41,1
calm,0,74.031,44.835,0.35,0.18,17.637,36.51,0.019,0.254,9.7,0.952,96.3,2025-07-16T19:04:53.552345,42,1
calm,0,70.568,44.199,0.368,0.117,13.77,36.45,-0.164,-0.073,9.749,0.624,97.8,2025-07-16T19:04:54.552345,43,1
calm,0,81.597,33.722,0.226,0.074,11.906,36.6,-0.011,0.048,9.773,0.513,96.1,2025-07-16T19:04:55.552345,44,1
calm,0,60.409,40.459,0.352,0.064,12.91,36.32,0.012,0.004,9.81,0.223,97.2,2025-07-16T19:04:56.552345,45,1
calm,0,82.125,54.854,0.5,0.051,13.779,36.8,-0.061,0.041,9.787,0.185,96.7,2025-07-16T19:04:57.552345,46,1
calm,0,73.668,30.286,0.312,0.132,16.686,36.39,-0.131,0.123,9.907,0.705,96.0,2025-07-16T19:04:58.552345,47,1
calm,0,64.26,47.925,0.306,0.109,13.71,36.55,0.023,0.031,9.847,0.643,96.9,2025-07-16T19:04:59.552345,48,1
calm,0,73.467,51.986,0.176,0.11,11.107,36.68,0.124,-0.005,9.801,0.245,96.4,2025-07-16T19:05:00.552345,49,1
calm,0,70.241,52.461,0.221,0.211,14.669,36.61,-0.119,-0.251,9.96,0.61,97.0,2025-07-16T19:05:01.552345,50,1
calm,0,79.126,42.57,0.197,0.031,13.368,36.47,-0.005,0.012,9.793,0.997,97.1,2025-07-16T19:05:02.552345,51,1
calm,0,55.0,48.469,0.153,0.092,13.307,36.45,-0.011,0.02,9.828,0.799,98.2,2025-07-16T19:05:03.552345,52,1
calm,0,75.7,65.0,0.306,0.126,13.024,36.79,-0.059,0.14,9.875,0.257,96.3,2025-07-16T19:05:04.552345,53,1
calm,0,73.193,43.994,0.359,0.074,14.242,36.79,-0.038,-0.056,9.809,0.205,96.7,2025-07-16T19:05:05.552345,54,1
calm,0,60.011,47.743,0.235,0.119,17.722,36.46,-0.084,0.131,9.777,0.538,97.7,2025-07-16T19:05:06.552345,55,1
calm,0,70.266,49.146,0.297,0.158,15.857,36.59,-0.002,-0.114,9.73,0.944,96.4,2025-07-16T19:05:07.552345,56,1
calm,0,68.84,58.627,0.305,0.072,12.97,36.33,0.039,-0.037,9.806,0.606,97.3,2025-07-16T19:05:08.552345,57,1
calm,0,65.768,46.483,0.438,0.072,14.24,36.4,-0.036,0.056,9.813,0.356,96.8,2025-07-16T19:05:09.552345,58,1
calm,0,65.247,48.183,0.446,0.014,16.885,36.59,0.004,0.011,9.803,0.368,97.6,2025-07-16T19:05:10.552345,59,1
calm,0,61.116,33.361,0.336,0.159,15.656,36.29,-0.035,0.095,9.95,0.524,97.4,2025-07-16T19:05:11.552345,60,1
calm,0,59.874,46.805,0.3,0.159,16.987,36.23,0.13,0.008,9.736,0.939,97.0,2025-07-16T19:05:12.552345,61,1
calm,0,58.85,64.624,0.237,0.134,14.293,36.49,-0.222,-0.189,9.72,0.482,97.8,2025-07-16T19:05:13.552345,62,1
calm,0,75.586,34.645,0.343,0.124,10.295,36.5,0.056,0.122,9.796,0.353,96.4,2025-07-16T19:05:14.552345,63,1
calm,0,75.823,61.279,0.263,0.073,13.712,36.79,-0.046,0.214,9.861,0.976,98.2,2025-07-16T19:05:15.552345,64,1
calm,0,68.983,55.153,0.34,0.172,12.612,36.64,-0.052,-0.174,9.777,0.277,96.6,2025-07-16T19:05:16.552345,65,1
calm,0,72.438,42.918,0.33,0.085,12.181,36.56,0.01,-0.077,9.833,0.95,97.6,2025-07-16T19:05:17.552345,66,1
calm,0,57.417,58.534,0.34,0.118,17.374,36.5,-0.167,-0.023,9.737,0.276,98.3,2025-07-16T19:05:18.552345,67,1
calm,0,64.886,30.0,0.471,0.064,16.39,36.38,-0.041,0.0,9.826,0.239,97.2,2025-07-16T19:05:19.552345,68,1
calm,0,68.806,35.552,0.194,0.25,11.728,36.62,-0.017,0.273,9.724,0.643,95.9,2025-07-16T19:05:20.552345,69,1
calm,0,74.993,51.462,0.449,0.101,14.137,36.6,0.1,0.031,9.776,0.825,96.7,2025-07-16T19:05:21.552345,70,1
calm,0,61.898,50.925,0.299,0.167,15.812,36.39,0.043,0.127,9.834,0.995,96.9,2025-07-16T19:05:22.552345,71,1
calm,0,68.026,36.129,0.268,0.113,12.312,36.68,0.058,-0.041,9.749,0.662,96.8,2025-07-16T19:05:23.552345,72,1
calm,0,75.277,52.909,0.404,0.153,14.833,36.77,-0.223,0.008,9.812,0.311,96.1,2025-07-16T19:05:24.552345,73,1
calm,0,65.905,30.553,0.211,0.112,16.229,36.72,-0.046,-0.039,9.75,0.832,97.9,2025-07-16T19:05:25.552345,74,1
calm,0,74.68,56.335,0.381,0.073,12.13,36.64,-0.05,0.061,9.747,0.426,96.4,2025-07-16T19:05:26.552345,75,1
calm,0,66.726,57.877,0.241,0.146,11.6,36.42,-0.124,0.076,9.875,0.128,96.8,2025-07-16T19:05:27.552345,76,1
calm,0,73.299,65.0,0.305,0.081,14.313,36.65,0.063,-0.117,9.755,0.219,97.1,2025-07-16T19:05:28.552345,77,1
calm,0,85.0,32.045,0.388,0.154,13.996,36.63,0.032,-0.022,9.788,0.807,96.8,2025-07-16T19:05:29.552345,78,1
calm,0,56.18,48.565,0.193,0.092,10.62,36.52,0.043,-0.001,9.803,0.815,97.6,2025-07-16T19:05:30.552345,79,1
calm,0,66.641,61.043,0.297,0.097,14.988,36.38,-0.054,-0.087,9.807,0.869,96.3,2025-07-16T19:05:31.552345,80,1
calm,0,73.114,43.154,0.441,0.114,11.91,36.48,-0.032,0.016,9.775,0.4,96.4,2025-07-16T19:05:32.552345,81,1
calm,0,69.422,35.52,0.34,0.086,11.817,36.49,0.097,-0.002,9.811,0.516,97.0,2025-07-16T19:05:33.552345,82,1
calm,0,81.485,52.937,0.422,0.13,11.211,36.75,0.067,-0.205,9.804,0.585,95.4,2025-07-16T19:05:34.552345,83,1
calm,0,68.577,30.0,0.264,0.165,15.705,36.64,0.316,-0.114,9.732,0.108,97.0,2025-07-16T19:05:35.552345,84,1
calm,0,67.21,33.456,0.271,0.056,13.017,36.35,-0.02,-0.035,9.811,0.997,97.6,2025-07-16T19:05:36.552345,85,1
calm,0,71.333,41.764,0.357,0.079,13.996,36.45,0.027,-0.142,9.811,0.226,97.3,2025-07-16T19:05:37.552345,86,1
calm,0,85.0,44.239,0.277,0.013,12.757,36.59,0.012,0.021,9.792,0.552,96.4,2025-07-16T19:05:38.552345,87,1
calm,0,69.02,53.294,0.33,0.17,15.023,36.7,0.08,-0.192,9.728,0.429,96.5,2025-07-16T19:05:39.552345,88,1
calm,0,75.006,43.395,0.261,0.149,17.193,36.42,0.132,0.284,9.852,0.981,97.1,2025-07-16T19:05:40.552345,89,1
calm,0,70.148,32.319,0.239,0.141,15.502,36.6,-0.176,0.176,9.809,0.702,97.0,2025-07-16T19:05:41.552345,90,1
calm,0,85.0,43.791,0.416,0.026,16.83,36.6,-0.039,-0.005,9.795,0.582,96.4,2025-07-16T19:05:42.552345,91,1
calm,0,70.832,61.173,0.154,0.104,16.07,36.61,0.088,-0.058,9.797,0.287,97.5,2025-07-16T19:05:43.552345,92,1
calm,0,71.771,46.003,0.361,0.073,17.501,36.43,0.05,-0.024,9.786,0.232,96.6,2025-07-16T19:05:44.552345,93,1
calm,0,60.358,46.24,0.152,0.104,12.645,36.4,-0.042,0.039,9.79,0.467,97.7,2025-07-16T19:05:45.552345,94,1
calm,0,72.975,38.995,0.168,0.096,15.71,36.7,-0.062,-0.079,9.835,0.643,98.0,2025-07-16T19:05:46.552345,95,1
calm,0,69.79,38.669,0.362,0.114,15.312,36.55,-0.052,0.035,9.861,0.861,97.9,2025-07-16T19:05:47.552345,96,1
calm,0,62.046,39.107,0.297,0.098,17.071,36.54,0.068,-0.052,9.828,0.219,96.9,2025-07-16T19:05:48.552345,97,1
calm,0,72.867,46.101,0.215,0.15,14.312,36.51,-0.015,-0.014,9.897,0.126,97.1,2025-07-16T19:05:49.552345,98,1
calm,0,81.784,46.278,0.353,0.092,12.735,36.56,-0.059,-0.131,9.755,0.955,96.0,2025-07-16T19:05:50.552345,99,1
calm,0,67.561,43.314,0.302,0.13,16.586,36.5,-0.092,0.072,9.826,0.57,97.3,2025-07-16T19:05:51.552345,100,1
calm,0,83.511,36.994,0.302,0.032,15.375,36.84,0.055,0.02,9.802,0.413,96.2,2025-07-16T19:05:52.552345,101,1
calm,0,68.638,34.801,0.193,0.092,11.342,36.52,-0.064,0.008,9.804,0.44,97.0,2025-07-16T19:05:53.552345,102,1
calm,0,70.055,58.131,0.241,0.002,13.495,36.6,-0.002,-0.002,9.803,0.85,97.4,2025-07-16T19:05:54.552345,103,1
calm,0,68.815,31.29,0.316,0.0,13.151,36.44,0.0,0.0,9.8,0.664,96.9,2025-07-16T19:05:55.552345,104,1
calm,0,82.535,42.882,0.172,0.076,16.968,36.75,-0.066,-0.087,9.767,0.266,95.8,2025-07-16T19:05:56.552345,105,1
calm,0,77.634,54.16,0.426,0.034,10.069,36.63,-0.041,-0.019,9.815,0.533,96.3,2025-07-16T19:05:57.552345,106,1
calm,0,84.488,40.631,0.378,0.12,13.099,36.75,-0.216,-0.12,9.764,0.518,97.2,2025-07-16T19:05:58.552345,107,1
calm,0,78.831,48.842,0.184,0.229,12.925,36.77,-0.137,0.019,9.86,0.817,97.0,2025-07-16T19:05:59.552345,108,1
calm,0,78.581,50.307,0.309,0.141,17.552,36.74,-0.019,0.165,9.854,0.162,96.5,2025-07-16T19:06:00.552345,109,1
calm,0,77.352,58.39,0.414,0.177,14.158,36.69,-0.159,-0.035,9.706,0.162,96.4,2025-07-16T19:06:01.552345,110,1
calm,0,63.069,46.427,0.15,0.001,16.536,36.46,-0.0,-0.001,9.799,0.308,98.1,2025-07-16T19:06:02.552345,111,1
calm,0,60.145,36.507,0.423,0.066,14.281,36.31,0.061,-0.068,9.803,0.951,97.1,2025-07-16T19:06:03.552345,112,1
calm,0,75.452,42.226,0.195,0.048,14.981,36.44,-0.062,0.024,9.795,0.169,97.5,2025-07-16T19:06:04.552345,113,1
calm,0,68.553,39.852,0.152,0.116,11.792,36.64,0.051,-0.058,9.827,0.193,97.7,2025-07-16T19:06:05.552345,114,1
calm,0,77.326,49.042,0.346,0.133,14.21,36.64,-0.326,-0.049,9.725,0.264,97.4,2025-07-16T19:06:06.552345,115,1
calm,0,73.93,51.137,0.208,0.053,12.67,36.56,-0.016,-0.032,9.775,0.757,96.4,2025-07-16T19:06:07.552345,116,1
calm,0,71.637,53.846,0.256,0.098,11.447,36.41,-0.052,-0.108,9.766,0.837,97.0,2025-07-16T19:06:08.552345,117,1
calm,0,76.702,36.55,0.291,0.135,14.48,36.61,-0.064,-0.167,9.727,0.362,96.1,2025-07-16T19:06:09.552345,118,1
calm,0,75.233,55.513,0.284,0.123,13.639,36.55,-0.103,0.073,9.84,0.927,96.8,2025-07-16T19:06:10.552345,119,1
calm,0,63.223,65.0,0.305,0.189,17.498,36.66,-0.052,-0.161,9.814,0.622,97.2,2025-07-16T19:06:11.552345,120,1
calm,0,65.747,51.3,0.347,0.055,14.701,36.42,-0.001,0.021,9.776,0.829,97.1,2025-07-16T19:06:12.552345,121,1
calm,0,71.349,47.286,0.317,0.104,11.985,36.54,-0.164,0.134,9.737,0.155,97.1,2025-07-16T19:06:13.552345,122,1
calm,0,65.57,37.902,0.382,0.144,13.211,36.67,-0.007,-0.19,9.764,0.49,97.6,2025-07-16T19:06:14.552345,123,1
calm,0,75.154,58.376,0.247,0.14,13.541,36.64,-0.116,0.132,9.691,0.895,96.7,2025-07-16T19:06:15.552345,124,1
calm,0,55.364,30.0,0.285,0.096,10.0,36.48,0.073,0.016,9.815,0.716,98.1,2025-07-16T19:06:16.552345,125,1
calm,0,60.882,48.268,0.358,0.094,15.075,36.44,0.04,0.041,9.848,0.987,96.7,2025-07-16T19:06:17.552345,126,1
calm,0,61.105,43.587,0.171,0.129,10.0,36.52,-0.065,-0.134,9.831,0.38,97.7,2025-07-16T19:06:18.552345,127,1
calm,0,81.74,47.979,0.248,0.111,17.939,36.56,-0.079,0.104,9.739,0.371,97.1,2025-07-16T19:06:19.552345,128,1
calm,0,62.719,42.246,0.313,0.098,15.883,36.48,0.056,0.025,9.763,0.905,97.0,2025-07-16T19:06:20.552345,129,1
calm,0,85.0,49.232,0.493,0.114,14.932,36.88,0.179,0.004,9.795,0.154,96.5,2025-07-16T19:06:21.552345,130,1
calm,0,69.381,49.207,0.345,0.084,14.031,36.55,0.19,-0.194,9.814,0.642,97.7,2025-07-16T19:06:22.552345,131,1
calm,0,65.122,59.75,0.15,0.031,10.0,36.34,-0.037,0.019,9.815,0.2,96.4,2025-07-16T19:06:23.552345,132,1
calm,0,68.961,56.068,0.369,0.027,12.48,36.33,-0.025,-0.011,9.82,0.519,97.5,2025-07-16T19:06:24.552345,133,1
calm,0,63.164,41.053,0.178,0.144,12.336,36.47,-0.108,0.179,9.74,0.284,97.3,2025-07-16T19:06:25.552345,134,1
calm,0,66.709,48.878,0.278,0.049,15.593,36.46,-0.009,0.053,9.821,0.605,97.9,2025-07-16T19:06:26.552345,135,1
calm,0,57.553,53.618,0.384,0.123,13.909,36.3,0.077,-0.036,9.784,0.53,97.1,2025-07-16T19:06:27.552345,136,1
calm,0,55.681,44.448,0.408,0.09,13.322,36.38,0.046,0.068,9.786,0.954,98.1,2025-07-16T19:06:28.552345,137,1
calm,0,75.407,50.016,0.216,0.119,13.917,36.59,-0.055,0.155,9.864,0.476,96.9,2025-07-16T19:06:29.552345,138,1
calm,0,74.513,51.717,0.354,0.081,13.168,36.66,0.004,-0.091,9.773,0.882,96.4,2025-07-16T19:06:30.552345,139,1
calm,0,78.362,50.089,0.441,0.088,13.947,36.62,-0.014,0.026,9.769,0.816,96.5,2025-07-16T19:06:31.552345,140,1
calm,0,64.653,41.146,0.293,0.062,17.596,36.48,0.05,0.042,9.813,0.555,97.6,2025-07-16T19:06:32.552345,141,1
calm,0,67.509,36.54,0.15,0.153,14.016,36.59,0.295,0.083,9.759,0.245,98.1,2025-07-16T19:06:33.552345,142,1
calm,0,59.37,45.724,0.432,0.184,13.417,36.44,0.027,0.207,9.758,0.903,97.4,2025-07-16T19:06:34.552345,143,1
calm,0,74.977,53.427,0.396,0.071,13.521,36.66,-0.082,-0.17,9.766,0.115,96.7,2025-07-16T19:06:35.552345,144,1
calm,0,71.613,48.801,0.209,0.156,16.723,36.63,0.205,0.082,9.696,0.91,97.4,2025-07-16T19:06:36.552345,145,1
calm,0,71.495,54.726,0.15,0.138,15.923,36.57,0.211,-0.005,9.768,0.468,97.4,2025-07-16T19:06:37.552345,146,1
calm,0,71.211,32.963,0.283,0.112,14.911,36.45,-0.033,-0.156,9.817,0.876,96.8,2025-07-16T19:06:38.552345,147,1
calm,0,78.205,52.192,0.383,0.092,14.597,36.57,0.096,0.11,9.819,0.621,96.5,2025-07-16T19:06:39.552345,148,1
calm,0,67.382,36.165,0.358,0.072,12.736,36.53,-0.003,0.071,9.818,0.607,97.0,2025-07-16T19:06:40.552345,149,1
calm,0,76.642,53.413,0.252,0.154,13.037,36.61,-0.048,0.143,9.718,0.428,97.2,2025-07-16T19:06:41.552345,150,1
calm,0,61.837,31.356,0.16,0.132,12.472,36.78,0.052,0.108,9.842,0.269,97.7,2025-07-16T19:06:42.552345,151,1
calm,0,72.877,59.148,0.313,0.145,12.868,36.63,-0.001,-0.116,9.655,0.194,97.6,2025-07-16T19:06:43.552345,152,1
calm,0,72.826,39.451,0.284,0.224,15.784,36.64,-0.365,0.091,9.874,0.2,96.7,2025-07-16T19:06:44.552345,153,1
calm,0,57.031,61.116,0.187,0.142,14.513,36.34,0.323,0.052,9.782,0.203,97.7,2025-07-16T19:06:45.552345,154,1
calm,0,65.03,44.886,0.195,0.104,11.213,36.45,0.006,0.028,9.823,0.547,97.1,2025-07-16T19:06:46.552345,155,1
calm,0,80.816,32.809,0.281,0.064,12.925,36.58,-0.09,0.002,9.785,0.327,96.2,2025-07-16T19:06:47.552345,156,1
calm,0,68.774,34.174,0.396,0.107,11.848,36.38,0.123,-0.019,9.885,0.369,96.4,2025-07-16T19:06:48.552345,157,1
calm,0,79.404,38.241,0.419,0.089,13.363,36.74,-0.119,-0.014,9.753,0.427,95.6,2025-07-16T19:06:49.552345,158,1
calm,0,85.0,32.303,0.325,0.113,14.602,36.69,0.095,-0.06,9.795,0.366,96.2,2025-07-16T19:06:50.552345,159,1
calm,0,61.729,54.06,0.299,0.109,15.481,36.52,0.075,-0.075,9.807,0.913,97.7,2025-07-16T19:06:51.552345,160,1
calm,0,83.795,36.147,0.282,0.056,11.229,36.77,-0.038,-0.094,9.818,0.79,96.2,2025-07-16T19:06:52.552345,161,1
calm,0,62.006,31.205,0.272,0.022,15.42,36.42,-0.054,0.021,9.807,0.377,96.8,2025-07-16T19:06:53.552345,162,1
calm,0,75.869,30.216,0.312,0.139,14.438,36.65,-0.073,-0.011,9.86,0.517,97.0,2025-07-16T19:06:54.552345,163,1
calm,0,66.519,43.478,0.234,0.117,13.115,36.55,0.097,0.117,9.839,0.464,97.2,2025-07-16T19:06:55.552345,164,1
calm,0,71.647,37.988,0.332,0.175,11.095,36.5,-0.147,-0.028,9.844,0.54,96.7,2025-07-16T19:06:56.552345,165,1
calm,0,73.503,50.547,0.277,0.137,13.588,36.56,-0.024,-0.147,9.786,0.464,96.8,2025-07-16T19:06:57.552345,166,1
calm,0,69.994,44.555,0.46,0.139,15.076,36.59,-0.033,-0.121,9.725,0.395,96.6,2025-07-16T19:06:58.552345,167,1
calm,0,85.0,51.091,0.369,0.135,14.727,36.57,-0.094,-0.018,9.854,0.342,97.1,2025-07-16T19:06:59.552345,168,1
calm,0,64.145,34.571,0.398,0.036,17.924,36.32,-0.038,0.042,9.829,0.713,97.3,2025-07-16T19:07:00.552345,169,1
calm,0,60.158,49.69,0.239,0.158,13.118,36.44,-0.201,0.137,9.761,0.975,97.2,2025-07-16T19:07:01.552345,170,1
calm,0,72.971,45.305,0.315,0.061,10.472,36.59,-0.004,-0.11,9.759,0.398,96.9,2025-07-16T19:07:02.552345,171,1
calm,0,82.048,46.137,0.419,0.072,11.17,36.77,-0.008,0.064,9.79,0.679,97.2,2025-07-16T19:07:03.552345,172,1
calm,0,65.693,46.574,0.402,0.078,16.485,36.51,0.026,-0.129,9.759,0.288,97.6,2025-07-16T19:07:04.552345,173,1
calm,0,83.417,50.266,0.349,0.09,11.682,36.55,-0.169,0.083,9.725,0.855,96.4,2025-07-16T19:07:05.552345,174,1
calm,0,75.302,59.347,0.384,0.132,14.221,36.57,-0.152,0.002,9.767,0.742,97.2,2025-07-16T19:07:06.552345,175,1
calm,0,56.966,55.633,0.33,0.072,14.147,36.28,-0.004,0.022,9.78,0.49,96.5,2025-07-16T19:07:07.552345,176,1
calm,0,55.0,42.784,0.333,0.073,14.406,36.39,0.027,-0.02,9.745,0.322,97.9,2025-07-16T19:07:08.552345,177,1
calm,0,72.612,34.73,0.379,0.13,17.217,36.65,0.087,-0.012,9.754,0.7,96.7,2025-07-16T19:07:09.552345,178,1
calm,0,77.944,54.2,0.362,0.0,13.297,36.42,0.0,0.0,9.8,0.218,96.7,2025-07-16T19:07:10.552345,179,1
focused,1,75.502,47.283,0.34,0.023,14.521,36.616,0.008,0.054,9.802,0.161,97.5,2025-07-16T19:07:11.552345,180,1
focused,1,76.946,45.297,0.38,0.004,14.101,36.48,-0.004,-0.0,9.802,0.789,96.5,2025-07-16T19:07:12.552345,181,1
focused,1,76.319,60.773,0.475,0.029,15.666,36.77,0.006,0.02,9.821,0.364,97.5,2025-07-16T19:07:13.552345,182,1
focused,1,72.435,48.008,0.419,0.062,12.0,36.48,0.01,-0.051,9.803,0.633,97.0,2025-07-16T19:07:14.552345,183,1
focused,1,65.312,57.959,0.347,0.069,13.414,36.63,0.029,-0.062,9.812,0.615,96.9,2025-07-16T19:07:15.552345,184,1
focused,1,74.897,50.217,0.299,0.047,14.852,36.67,-0.046,0.005,9.813,0.822,96.4,2025-07-16T19:07:16.552345,185,1
focused,1,78.089,53.038,0.476,0.06,14.153,36.58,-0.04,0.002,9.806,0.995,95.2,2025-07-16T19:07:17.552345,186,1
focused,1,78.423,60.524,0.344,0.022,13.982,36.57,-0.006,-0.014,9.786,0.532,96.4,2025-07-16T19:07:18.552345,187,1
focused,1,83.207,54.576,0.475,0.021,15.105,36.64,0.025,0.0,9.813,0.404,96.0,2025-07-16T19:07:19.552345,188,1
focused,1,80.995,45.34,0.422,0.072,15.297,36.71,0.066,-0.055,9.718,0.386,96.9,2025-07-16T19:07:20.552345,189,1
focused,1,69.88,44.015,0.425,0.057,15.976,36.52,0.077,0.131,9.783,0.428,96.5,2025-07-16T19:07:21.552345,190,1
focused,1,73.223,36.78,0.282,0.077,14.367,36.61,-0.138,-0.116,9.772,0.735,97.6,2025-07-16T19:07:22.552345,191,1
focused,1,77.636,36.499,0.452,0.045,14.087,36.67,-0.051,-0.007,9.788,0.83,96.6,2025-07-16T19:07:23.552345,192,1
focused,1,68.119,45.49,0.35,0.081,16.293,36.55,0.051,0.085,9.81,0.437,97.0,2025-07-16T19:07:24.552345,193,1
focused,1,68.678,60.639,0.314,0.037,14.03,36.46,-0.005,-0.02,9.786,0.115,97.1,2025-07-16T19:07:25.552345,194,1
focused,1,74.533,58.74,0.464,0.061,15.718,36.68,-0.048,-0.009,9.769,0.851,96.3,2025-07-16T19:07:26.552345,195,1
focused,1,72.997,41.207,0.464,0.039,14.279,36.66,-0.036,0.036,9.808,0.799,97.4,2025-07-16T19:07:27.552345,196,1
focused,1,71.182,60.494,0.476,0.034,15.648,36.52,-0.031,0.03,9.797,0.593,96.1,2025-07-16T19:07:28.552345,197,1
focused,1,80.172,59.151,0.547,0.039,15.639,36.79,-0.014,0.053,9.805,0.52,96.6,2025-07-16T19:07:29.552345,198,1
focused,1,83.528,45.448,0.406,0.088,16.51,36.85,-0.054,0.044,9.812,0.357,95.7,2025-07-16T19:07:30.552345,199,1
focused,1,73.942,49.54,0.439,0.075,12.872,36.5,-0.032,0.122,9.785,0.771,96.7,2025-07-16T19:07:31.552345,200,1
focused,1,81.474,53.126,0.341,0.016,16.673,36.65,0.013,-0.021,9.791,0.142,97.2,2025-07-16T19:07:32.552345,201,1
focused,1,73.594,48.49,0.379,0.04,15.347,36.53,-0.044,0.048,9.774,0.227,96.7,2025-07-16T19:07:33.552345,202,1
focused,1,81.174,42.803,0.322,0.089,15.745,36.74,0.127,0.162,9.823,0.956,97.1,2025-07-16T19:07:34.552345,203,1
focused,1,65.0,46.317,0.488,0.054,13.666,36.43,0.005,-0.043,9.795,0.46,96.8,2025-07-16T19:07:35.552345,204,1
focused,1,77.431,40.532,0.378,0.057,17.6,36.63,0.036,-0.106,9.836,0.95,97.1,2025-07-16T19:07:36.552345,205,1
focused,1,81.329,63.469,0.365,0.039,16.65,36.69,-0.056,-0.036,9.783,0.165,96.2,2025-07-16T19:07:37.552345,206,1
focused,1,69.06,39.185,0.337,0.035,15.031,36.37,0.014,0.016,9.8,0.418,96.5,2025-07-16T19:07:38.552345,207,1
focused,1,75.155,56.918,0.371,0.069,16.539,36.68,0.038,-0.02,9.798,0.654,96.7,2025-07-16T19:07:39.552345,208,1
focused,1,73.744,62.812,0.301,0.045,12.0,36.51,-0.01,-0.03,9.789,0.891,96.6,2025-07-16T19:07:40.552345,209,1
focused,1,74.498,65.18,0.346,0.033,13.081,36.55,0.032,-0.052,9.789,0.125,96.2,2025-07-16T19:07:41.552345,210,1
focused,1,71.917,53.345,0.25,0.066,13.778,36.51,-0.071,0.026,9.783,0.797,96.8,2025-07-16T19:07:42.552345,211,1
focused,1,74.59,36.142,0.353,0.056,18.0,36.54,-0.042,-0.002,9.812,0.861,97.5,2025-07-16T19:07:43.552345,212,1
focused,1,79.053,64.062,0.437,0.063,14.516,36.72,0.015,0.065,9.817,0.95,96.7,2025-07-16T19:07:44.552345,213,1
focused,1,70.12,47.583,0.46,0.059,16.688,36.59,-0.084,0.077,9.853,0.361,97.0,2025-07-16T19:07:45.552345,214,1
focused,1,88.222,35.0,0.443,0.116,14.009,36.73,0.076,0.028,9.73,0.537,96.9,2025-07-16T19:07:46.552345,215,1
focused,1,83.239,66.572,0.42,0.035,13.113,36.63,0.022,-0.019,9.783,0.549,96.3,2025-07-16T19:07:47.552345,216,1
focused,1,66.406,54.928,0.454,0.025,16.101,36.48,-0.015,-0.002,9.789,0.963,97.6,2025-07-16T19:07:48.552345,217,1
focused,1,76.185,68.596,0.524,0.047,15.604,36.61,-0.002,-0.055,9.806,0.578,97.4,2025-07-16T19:07:49.552345,218,1
focused,1,69.61,59.317,0.464,0.045,13.233,36.54,-0.026,-0.041,9.784,0.76,97.1,2025-07-16T19:07:50.552345,219,1
focused,1,87.713,39.462,0.465,0.052,15.603,36.78,0.077,0.072,9.742,0.55,96.2,2025-07-16T19:07:51.552345,220,1
focused,1,77.077,41.26,0.334,0.056,16.451,36.68,0.069,0.082,9.817,0.286,96.6,2025-07-16T19:07:52.552345,221,1
focused,1,80.797,36.597,0.274,0.053,14.777,36.83,0.022,-0.031,9.841,0.503,96.7,2025-07-16T19:07:53.552345,222,1
focused,1,76.604,55.229,0.47,0.086,16.724,36.61,-0.073,0.13,9.854,0.742,96.5,2025-07-16T19:07:54.552345,223,1
focused,1,66.665,50.437,0.321,0.025,15.569,36.48,-0.018,0.009,9.809,0.104,97.5,2025-07-16T19:07:55.552345,224,1
focused,1,79.396,54.681,0.333,0.049,13.835,36.43,0.032,0.042,9.752,0.107,96.5,2025-07-16T19:07:56.552345,225,1
focused,1,71.303,46.43,0.316,0.042,12.924,36.62,0.018,-0.012,9.818,0.908,96.7,2025-07-16T19:07:57.552345,226,1
focused,1,81.341,48.46,0.372,0.057,17.459,36.7,0.145,-0.035,9.78,0.708,96.0,2025-07-16T19:07:58.552345,227,1
focused,1,80.881,61.985,0.422,0.057,15.287,36.52,0.003,-0.049,9.823,0.184,95.6,2025-07-16T19:07:59.552345,228,1
focused,1,69.08,35.342,0.471,0.046,15.733,36.5,0.026,0.074,9.758,0.819,97.1,2025-07-16T19:08:00.552345,229,1
focused,1,74.943,57.355,0.499,0.065,15.504,36.55,-0.069,0.001,9.821,0.176,96.5,2025-07-16T19:08:01.552345,230,1
focused,1,83.347,60.148,0.328,0.053,17.605,36.62,0.075,0.002,9.811,0.693,95.7,2025-07-16T19:08:02.552345,231,1
focused,1,72.03,46.733,0.343,0.038,14.796,36.5,0.015,-0.01,9.801,0.247,96.9,2025-07-16T19:08:03.552345,232,1
focused,1,75.106,56.418,0.513,0.05,17.845,36.62,0.026,0.005,9.781,0.773,96.6,2025-07-16T19:08:04.552345,233,1
focused,1,65.0,49.839,0.548,0.082,18.0,36.63,0.107,-0.053,9.811,0.664,96.6,2025-07-16T19:08:05.552345,234,1
focused,1,74.189,69.117,0.385,0.051,13.749,36.52,-0.113,0.064,9.828,0.644,97.0,2025-07-16T19:08:06.552345,235,1
focused,1,81.208,50.685,0.444,0.052,14.851,36.55,-0.037,0.029,9.831,0.408,95.6,2025-07-16T19:08:07.552345,236,1
focused,1,69.834,44.648,0.452,0.051,13.097,36.5,-0.178,-0.063,9.754,0.212,97.1,2025-07-16T19:08:08.552345,237,1
focused,1,81.627,54.751,0.391,0.05,14.784,36.63,0.086,-0.023,9.812,0.871,96.7,2025-07-16T19:08:09.552345,238,1
focused,1,77.805,51.072,0.422,0.09,16.371,36.63,0.039,-0.073,9.822,0.189,96.6,2025-07-16T19:08:10.552345,239,1
focused,1,80.774,57.192,0.32,0.093,14.71,36.74,-0.064,-0.144,9.872,0.218,96.4,2025-07-16T19:08:11.552345,240,1
focused,1,75.616,62.886,0.365,0.065,16.645,36.66,0.069,0.018,9.822,0.404,97.5,2025-07-16T19:08:12.552345,241,1
focused,1,74.858,46.538,0.361,0.09,14.439,36.58,-0.131,0.125,9.852,0.541,96.7,2025-07-16T19:08:13.552345,242,1
focused,1,67.63,61.711,0.436,0.045,14.31,36.42,-0.018,-0.038,9.798,0.41,97.1,2025-07-16T19:08:14.552345,243,1
focused,1,69.957,52.566,0.303,0.064,12.546,36.57,-0.1,0.004,9.781,0.923,97.3,2025-07-16T19:08:15.552345,244,1
focused,1,72.5,46.119,0.262,0.05,14.001,36.45,-0.063,0.103,9.755,0.485,97.0,2025-07-16T19:08:16.552345,245,1
focused,1,67.407,43.206,0.375,0.042,14.683,36.58,-0.076,0.029,9.807,0.616,97.4,2025-07-16T19:08:17.552345,246,1
focused,1,78.392,53.633,0.404,0.04,15.716,36.71,-0.005,0.028,9.801,0.61,96.1,2025-07-16T19:08:18.552345,247,1
focused,1,76.177,42.724,0.352,0.053,14.762,36.43,0.008,-0.022,9.795,0.287,97.0,2025-07-16T19:08:19.552345,248,1
focused,1,80.767,52.421,0.486,0.071,16.135,36.47,-0.081,0.043,9.822,0.165,96.4,2025-07-16T19:08:20.552345,249,1
focused,1,82.794,54.759,0.41,0.034,17.579,36.74,0.033,0.031,9.795,0.903,96.1,2025-07-16T19:08:21.552345,250,1
focused,1,83.646,52.076,0.451,0.069,13.31,36.91,0.083,-0.063,9.836,0.8,97.3,2025-07-16T19:08:22.552345,251,1
focused,1,73.795,50.82,0.342,0.052,15.111,36.47,0.051,-0.043,9.812,0.169,96.5,2025-07-16T19:08:23.552345,252,1
focused,1,82.495,50.152,0.372,0.02,18.0,36.64,-0.006,0.006,9.791,0.295,95.7,2025-07-16T19:08:24.552345,253,1
focused,1,83.362,46.58,0.394,0.029,13.894,36.68,-0.014,-0.03,9.777,0.48,96.2,2025-07-16T19:08:25.552345,254,1
focused,1,81.486,48.824,0.35,0.045,12.0,36.55,0.02,-0.035,9.784,0.902,96.1,2025-07-16T19:08:26.552345,255,1
focused,1,76.699,43.904,0.286,0.034,12.211,36.63,0.016,-0.071,9.811,0.628,96.9,2025-07-16T19:08:27.552345,256,1
focused,1,86.159,55.422,0.409,0.057,15.995,36.63,0.016,-0.032,9.846,0.702,96.5,2025-07-16T19:08:28.552345,257,1
focused,1,75.738,50.485,0.353,0.056,15.756,36.61,-0.024,0.018,9.799,0.601,96.9,2025-07-16T19:08:29.552345,258,1
focused,1,70.388,46.831,0.34,0.044,14.275,36.51,-0.057,0.019,9.766,0.667,96.5,2025-07-16T19:08:30.552345,259,1
focused,1,66.069,54.987,0.458,0.032,15.294,36.45,-0.043,0.024,9.813,0.497,97.5,2025-07-16T19:08:31.552345,260,1
focused,1,79.773,64.459,0.422,0.013,12.302,36.47,0.011,0.008,9.794,0.842,95.5,2025-07-16T19:08:32.552345,261,1
focused,1,80.899,46.612,0.256,0.029,14.243,36.52,-0.028,0.015,9.774,0.492,97.2,2025-07-16T19:08:33.552345,262,1
focused,1,68.457,45.005,0.482,0.042,14.289,36.57,0.028,0.016,9.774,0.457,97.1,2025-07-16T19:08:34.552345,263,1
focused,1,65.937,46.914,0.282,0.031,13.99,36.64,0.001,0.017,9.787,0.239,96.1,2025-07-16T19:08:35.552345,264,1
focused,1,69.075,65.662,0.5,0.074,14.876,36.53,0.027,-0.016,9.823,0.554,96.6,2025-07-16T19:08:36.552345,265,1
focused,1,74.595,35.249,0.363,0.051,15.094,36.52,0.072,0.004,9.806,0.503,96.6,2025-07-16T19:08:37.552345,266,1
focused,1,69.906,53.811,0.55,0.069,15.121,36.56,-0.028,-0.004,9.799,0.434,96.9,2025-07-16T19:08:38.552345,267,1
focused,1,86.957,53.048,0.489,0.073,14.77,36.64,-0.063,-0.097,9.779,0.419,96.3,2025-07-16T19:08:39.552345,268,1
focused,1,66.799,58.721,0.355,0.023,13.477,36.53,0.004,-0.033,9.792,0.495,96.6,2025-07-16T19:08:40.552345,269,1
focused,1,75.167,50.947,0.346,0.066,15.392,36.6,0.089,-0.087,9.825,0.673,97.4,2025-07-16T19:08:41.552345,270,1
focused,1,73.306,54.982,0.438,0.045,15.777,36.59,0.01,0.014,9.779,0.551,97.0,2025-07-16T19:08:42.552345,271,1
focused,1,73.341,50.57,0.456,0.077,13.912,36.58,-0.114,-0.026,9.799,0.13,96.0,2025-07-16T19:08:43.552345,272,1
focused,1,73.608,56.363,0.457,0.027,17.832,36.62,-0.025,0.026,9.78,0.808,96.8,2025-07-16T19:08:44.552345,273,1
focused,1,73.482,41.18,0.334,0.077,16.646,36.7,-0.002,0.072,9.803,0.21,96.8,2025-07-16T19:08:45.552345,274,1
focused,1,66.364,49.973,0.446,0.053,15.352,36.55,-0.071,-0.026,9.8,0.789,97.8,2025-07-16T19:08:46.552345,275,1
focused,1,78.869,59.737,0.389,0.079,13.302,36.53,-0.04,0.035,9.79,0.719,96.6,2025-07-16T19:08:47.552345,276,1
focused,1,67.854,49.657,0.25,0.054,15.298,36.42,-0.002,0.087,9.801,0.235,97.1,2025-07-16T19:08:48.552345,277,1
focused,1,75.614,52.124,0.481,0.057,17.045,36.46,0.059,-0.077,9.852,0.261,97.0,2025-07-16T19:08:49.552345,278,1
focused,1,73.894,49.868,0.284,0.036,17.162,36.59,0.021,-0.015,9.834,0.127,96.2,2025-07-16T19:08:50.552345,279,1
focused,1,74.666,44.287,0.321,0.065,14.938,36.51,-0.049,-0.002,9.82,0.381,96.6,2025-07-16T19:08:51.552345,280,1
focused,1,74.677,38.392,0.371,0.097,15.847,36.6,0.079,-0.108,9.805,0.24,96.3,2025-07-16T19:08:52.552345,281,1
focused,1,73.903,43.559,0.451,0.041,16.249,36.43,0.028,0.057,9.756,0.648,97.6,2025-07-16T19:08:53.552345,282,1
focused,1,82.915,53.299,0.472,0.038,17.041,36.8,-0.04,0.027,9.795,0.791,95.7,2025-07-16T19:08:54.552345,283,1
focused,1,83.51,35.772,0.39,0.053,14.504,36.74,0.005,0.067,9.749,0.146,96.2,2025-07-16T19:08:55.552345,284,1
focused,1,82.192,66.259,0.352,0.082,14.997,36.71,0.127,0.028,9.848,0.298,97.3,2025-07-16T19:08:56.552345,285,1
focused,1,81.42,62.335,0.376,0.066,13.089,36.65,-0.064,-0.051,9.764,0.738,96.9,2025-07-16T19:08:57.552345,286,1
focused,1,69.353,63.622,0.47,0.079,17.538,36.49,0.091,-0.028,9.779,0.6,97.5,2025-07-16T19:08:58.552345,287,1
focused,1,65.862,63.423,0.431,0.067,13.719,36.52,-0.111,-0.047,9.717,0.126,96.6,2025-07-16T19:08:59.552345,288,1
focused,1,72.532,48.9,0.37,0.07,13.26,36.47,-0.003,0.061,9.786,0.218,96.9,2025-07-16T19:09:00.552345,289,1
focused,1,75.167,36.853,0.393,0.034,13.412,36.49,0.049,0.007,9.778,0.546,97.1,2025-07-16T19:09:01.552345,290,1
focused,1,79.857,55.117,0.396,0.049,14.725,36.59,0.022,-0.011,9.797,0.153,96.2,2025-07-16T19:09:02.552345,291,1
focused,1,68.94,57.804,0.325,0.04,15.251,36.56,-0.006,0.023,9.786,0.499,96.6,2025-07-16T19:09:03.552345,292,1
focused,1,80.145,36.737,0.385,0.043,13.966,36.47,-0.007,0.008,9.796,0.968,96.5,2025-07-16T19:09:04.552345,293,1
focused,1,71.168,49.511,0.467,0.054,13.64,36.33,-0.083,0.008,9.795,0.122,96.5,2025-07-16T19:09:05.552345,294,1
focused,1,65.0,45.952,0.361,0.083,14.555,36.61,-0.065,-0.084,9.814,0.559,97.3,2025-07-16T19:09:06.552345,295,1
focused,1,71.875,44.852,0.417,0.069,16.819,36.66,0.116,0.084,9.815,0.536,96.9,2025-07-16T19:09:07.552345,296,1
focused,1,79.198,60.625,0.395,0.052,15.007,36.44,0.054,-0.028,9.753,0.996,97.5,2025-07-16T19:09:08.552345,297,1
focused,1,84.071,51.818,0.311,0.035,14.495,36.67,-0.065,0.059,9.815,0.919,96.4,2025-07-16T19:09:09.552345,298,1
focused,1,70.07,37.561,0.481,0.044,15.72,36.46,0.015,0.075,9.766,0.722,96.0,2025-07-16T19:09:10.552345,299,1
calm,0,61.955,31.887,0.274,0.074,14.432,36.31,-0.0,-0.04,9.816,0.163,96.5,2025-07-16T19:04:11.603759,0,2
calm,0,72.57,38.184,0.435,0.119,10.112,36.68,0.06,0.001,9.974,0.409,96.4,2025-07-16T19:04:12.603759,1,2
calm,0,70.532,56.811,0.376,0.122,11.261,36.57,-0.086,-0.026,9.922,0.851,97.2,2025-07-16T19:04:13.603759,2,2
calm,0,67.921,30.245,0.293,0.143,12.414,36.43,-0.046,0.157,9.798,0.644,96.9,2025-07-16T19:04:14.603759,3,2
calm,0,58.101,45.418,0.309,0.034,14.421,36.32,0.01,0.031,9.795,0.685,97.2,2025-07-16T19:04:15.603759,4,2
calm,0,78.107,49.616,0.304,0.18,14.901,36.44,0.059,-0.079,9.764,0.739,96.6,2025-07-16T19:04:16.603759,5,2
calm,0,68.441,44.305,0.35,0.142,11.6,36.65,0.226,-0.177,9.74,0.199,98.0,2025-07-16T19:04:17.603759,6,2
calm,0,71.529,49.328,0.286,0.089,13.214,36.55,-0.105,-0.038,9.81,0.735,97.5,2025-07-16T19:04:18.603759,7,2
calm,0,65.92,44.726,0.399,0.159,15.446,36.54,0.071,0.095,9.711,0.862,97.1,2025-07-16T19:04:19.603759,8,2
calm,0,80.821,50.226,0.294,0.082,12.68,36.81,0.143,-0.02,9.861,0.28,96.7,2025-07-16T19:04:20.603759,9,2
calm,0,80.52,58.802,0.192,0.063,11.96,36.82,0.093,0.062,9.755,0.849,96.4,2025-07-16T19:04:21.603759,10,2
calm,0,65.735,38.473,0.345,0.02,15.714,36.42,0.016,-0.021,9.797,0.983,96.6,2025-07-16T19:04:22.603759,11,2
calm,0,74.075,60.899,0.324,0.15,14.74,36.67,-0.118,-0.1,9.912,0.983,97.2,2025-07-16T19:04:23.603759,12,2
calm,0,65.692,30.0,0.263,0.017,16.519,36.43,-0.037,0.021,9.8,0.545,96.8,2025-07-16T19:04:24.603759,13,2
calm,0,63.165,43.391,0.366,0.054,15.235,36.42,0.121,0.094,9.816,0.312,97.4,2025-07-16T19:04:25.603759,14,2
calm,0,70.975,35.063,0.231,0.158,10.976,36.57,0.265,0.1,9.772,0.31,97.3,2025-07-16T19:04:26.603759,15,2
calm,0,83.234,35.611,0.224,0.222,12.395,36.82,0.177,-0.049,9.753,0.551,96.9,2025-07-16T19:04:27.603759,16,2
calm,0,73.469,38.303,0.309,0.07,16.389,36.65,-0.112,0.007,9.801,0.212,97.4,2025-07-16T19:04:28.603759,17,2
calm,0,76.414,56.766,0.291,0.035,15.178,36.6,-0.023,-0.022,9.78,0.275,97.2,2025-07-16T19:04:29.603759,18,2
calm,0,72.963,30.0,0.325,0.148,15.591,36.93,0.014,-0.074,9.727,0.88,97.4,2025-07-16T19:04:30.603759,19,2
calm,0,75.133,30.754,0.289,0.218,13.185,36.65,-0.014,0.05,9.652,0.826,96.4,2025-07-16T19:04:31.603759,20,2
calm,0,62.973,38.676,0.211,0.041,13.908,36.51,0.011,-0.034,9.817,0.853,97.4,2025-07-16T19:04:32.603759,21,2
calm,0,60.413,34.623,0.32,0.055,16.64,36.45,-0.014,-0.027,9.772,0.567,97.1,2025-07-16T19:04:33.603759,22,2
calm,0,82.029,38.959,0.275,0.099,14.946,36.55,0.079,0.047,9.886,0.926,97.5,2025-07-16T19:04:34.603759,23,2
calm,0,75.923,58.7,0.331,0.062,13.29,36.64,0.014,-0.015,9.723,0.527,97.3,2025-07-16T19:04:35.603759,24,2
calm,0,77.057,40.224,0.284,0.082,13.068,36.64,-0.002,-0.061,9.776,0.246,96.8,2025-07-16T19:04:36.603759,25,2
calm,0,64.122,30.543,0.365,0.0,13.917,36.44,0.0,0.0,9.8,0.178,97.8,2025-07-16T19:04:37.603759,26,2
calm,0,65.12,47.839,0.333,0.088,15.842,36.44,-0.004,-0.034,9.869,0.447,97.5,2025-07-16T19:04:38.603759,27,2
calm,0,66.0,65.0,0.407,0.118,12.487,36.49,-0.012,-0.094,9.746,0.83,97.0,2025-07-16T19:04:39.603759,28,2
calm,0,60.109,43.272,0.277,0.153,11.797,36.46,0.271,0.07,9.895,0.29,98.1,2025-07-16T19:04:40.603759,29,2
calm,0,79.107,45.252,0.206,0.066,10.786,36.62,0.018,-0.068,9.809,0.372,96.5,2025-07-16T19:04:41.603759,30,2
calm,0,72.855,63.23,0.475,0.125,13.586,36.54,-0.075,-0.063,9.941,0.167,96.6,2025-07-16T19:04:42.603759,31,2
calm,0,62.648,40.536,0.405,0.199,15.779,36.58,0.101,0.085,9.765,0.24,97.8,2025-07-16T19:04:43.603759,32,2
calm,0,65.622,48.67,0.474,0.196,15.0,36.57,0.035,-0.275,9.825,0.886,96.6,2025-07-16T19:04:44.603759,33,2
calm,0,80.066,52.133,0.324,0.095,14.872,36.56,-0.065,0.187,9.768,0.735,97.2,2025-07-16T19:04:45.603759,34,2
calm,0,69.672,41.802,0.443,0.105,12.59,36.41,-0.035,-0.152,9.858,0.154,97.6,2025-07-16T19:04:46.603759,35,2
calm,0,56.11,36.539,0.172,0.174,15.522,36.49,0.505,0.071,9.757,0.45,97.7,2025-07-16T19:04:47.603759,36,2
calm,0,70.326,45.254,0.305,0.105,14.473,36.65,0.133,-0.181,9.758,0.799,97.3,2025-07-16T19:04:48.603759,37,2
calm,0,71.324,58.309,0.193,0.124,13.076,36.68,-0.105,0.22,9.774,0.233,97.3,2025-07-16T19:04:49.603759,38,2
calm,0,80.541,33.443,0.306,0.108,10.141,36.71,0.097,-0.04,9.832,0.319,96.6,2025-07-16T19:04:50.603759,39,2
calm,0,69.219,30.0,0.307,0.126,17.722,36.44,0.083,-0.088,9.793,0.909,97.6,2025-07-16T19:04:51.603759,40,2
calm,0,61.253,50.752,0.396,0.133,14.707,36.43,-0.006,0.157,9.818,0.144,97.7,2025-07-16T19:04:52.603759,41,2
calm,0,70.369,55.504,0.345,0.142,14.142,36.39,-0.263,0.073,9.818,0.958,96.6,2025-07-16T19:04:53.603759,42,2
calm,0,79.721,35.5,0.315,0.12,11.751,36.46,-0.122,0.118,9.877,0.22,95.7,2025-07-16T19:04:54.603759,43,2
calm,0,82.765,39.817,0.395,0.0,14.673,36.6,0.0,0.0,9.8,0.568,95.7,2025-07-16T19:04:55.603759,44,2
calm,0,77.343,33.939,0.342,0.042,12.382,36.62,-0.051,-0.031,9.792,0.466,96.0,2025-07-16T19:04:56.603759,45,2
calm,0,68.491,64.16,0.386,0.025,13.18,36.28,-0.026,-0.03,9.801,0.941,96.6,2025-07-16T19:04:57.603759,46,2
calm,0,82.202,30.0,0.309,0.112,16.098,36.9,-0.005,-0.035,9.85,0.124,96.2,2025-07-16T19:04:58.603759,47,2
calm,0,77.647,45.779,0.319,0.052,14.728,36.67,-0.041,-0.04,9.759,0.169,97.7,2025-07-16T19:04:59.603759,48,2
calm,0,65.692,47.247,0.198,0.185,12.701,36.66,0.276,0.094,9.914,0.348,97.2,2025-07-16T19:05:00.603759,49,2
calm,0,70.574,36.943,0.335,0.047,13.62,36.53,0.009,-0.023,9.836,0.284,97.5,2025-07-16T19:05:01.603759,50,2
calm,0,68.437,51.864,0.416,0.046,13.343,36.67,0.022,-0.039,9.778,0.343,97.3,2025-07-16T19:05:02.603759,51,2
calm,0,68.778,30.32,0.395,0.135,15.538,36.6,0.003,-0.339,9.733,0.238,97.1,2025-07-16T19:05:03.603759,52,2
calm,0,69.539,57.188,0.212,0.173,12.63,36.65,0.23,0.22,9.78,0.58,97.3,2025-07-16T19:05:04.603759,53,2
calm,0,76.02,30.0,0.413,0.081,12.953,36.71,-0.033,-0.154,9.815,0.73,96.4,2025-07-16T19:05:05.603759,54,2
calm,0,76.878,56.836,0.15,0.145,10.094,36.81,0.011,0.138,9.861,0.334,96.4,2025-07-16T19:05:06.603759,55,2
calm,0,71.299,30.0,0.295,0.088,12.646,36.44,0.099,-0.012,9.791,0.282,97.5,2025-07-16T19:05:07.603759,56,2
calm,0,60.487,40.467,0.334,0.08,13.903,36.45,0.014,0.083,9.819,0.557,97.0,2025-07-16T19:05:08.603759,57,2
calm,0,65.612,60.43,0.369,0.14,13.947,36.55,0.005,-0.022,9.867,0.15,97.8,2025-07-16T19:05:09.603759,58,2
calm,0,55.551,37.321,0.349,0.083,14.279,36.67,-0.088,-0.106,9.837,0.471,97.1,2025-07-16T19:05:10.603759,59,2
calm,0,69.031,65.0,0.483,0.089,15.96,36.46,0.009,-0.099,9.758,0.298,97.3,2025-07-16T19:05:11.603759,60,2
calm,0,69.371,54.81,0.404,0.056,16.94,36.52,-0.039,-0.048,9.788,0.81,96.3,2025-07-16T19:05:12.603759,61,2
calm,0,77.408,51.919,0.306,0.176,14.254,36.6,-0.088,0.004,9.969,0.43,97.2,2025-07-16T19:05:13.603759,62,2
calm,0,80.177,30.984,0.453,0.037,13.465,36.8,-0.051,0.016,9.819,0.64,97.1,2025-07-16T19:05:14.603759,63,2
calm,0,63.467,42.074,0.259,0.138,10.93,36.4,0.09,0.019,9.849,0.965,97.6,2025-07-16T19:05:15.603759,64,2
calm,0,82.603,37.87,0.327,0.145,16.67,36.63,0.038,0.275,9.661,0.839,97.0,2025-07-16T19:05:16.603759,65,2
calm,0,76.038,36.668,0.276,0.106,11.472,36.65,0.039,0.057,9.837,0.777,97.5,2025-07-16T19:05:17.603759,66,2
calm,0,84.306,41.558,0.167,0.102,15.056,36.47,0.089,-0.101,9.746,0.886,96.4,2025-07-16T19:05:18.603759,67,2
calm,0,75.966,58.203,0.286,0.084,14.904,36.44,0.015,0.11,9.817,0.158,96.9,2025-07-16T19:05:19.603759,68,2
calm,0,71.189,30.0,0.379,0.126,12.27,36.77,-0.201,-0.162,9.786,0.818,97.8,2025-07-16T19:05:20.603759,69,2
calm,0,62.358,37.682,0.37,0.086,16.971,36.48,0.077,-0.114,9.851,0.29,97.4,2025-07-16T19:05:21.603759,70,2
calm,0,61.4,37.459,0.369,0.211,14.126,36.5,0.107,0.199,9.81,0.165,97.8,2025-07-16T19:05:22.603759,71,2
calm,0,71.13,38.301,0.349,0.117,16.371,36.56,0.185,-0.149,9.756,0.632,97.1,2025-07-16T19:05:23.603759,72,2
calm,0,78.607,48.068,0.15,0.089,13.938,36.59,-0.034,-0.016,9.846,0.704,97.2,2025-07-16T19:05:24.603759,73,2
calm,0,72.86,31.404,0.418,0.091,16.291,36.63,-0.087,0.115,9.806,0.859,96.2,2025-07-16T19:05:25.603759,74,2
calm,0,66.441,52.39,0.405,0.054,15.839,36.41,-0.012,-0.06,9.745,0.35,96.7,2025-07-16T19:05:26.603759,75,2
calm,0,73.276,38.84,0.364,0.104,16.074,36.56,-0.089,0.238,9.805,0.718,96.5,2025-07-16T19:05:27.603759,76,2
calm,0,59.664,41.214,0.286,0.11,16.097,36.34,0.006,-0.103,9.721,0.154,97.4,2025-07-16T19:05:28.603759,77,2
calm,0,62.217,63.874,0.335,0.0,17.798,36.4,0.0,0.0,9.8,0.263,97.3,2025-07-16T19:05:29.603759,78,2
calm,0,73.306,43.912,0.201,0.187,11.549,36.55,-0.052,-0.089,9.752,0.473,96.1,2025-07-16T19:05:30.603759,79,2
calm,0,67.793,41.74,0.213,0.06,16.556,36.55,0.048,0.095,9.817,0.167,96.9,2025-07-16T19:05:31.603759,80,2
calm,0,69.031,51.3,0.473,0.128,13.106,36.56,-0.05,-0.174,9.727,0.226,97.5,2025-07-16T19:05:32.603759,81,2
calm,0,77.544,35.724,0.262,0.087,17.05,36.65,-0.008,-0.093,9.849,0.306,96.6,2025-07-16T19:05:33.603759,82,2
calm,0,70.604,48.791,0.304,0.042,11.257,36.6,-0.007,0.07,9.759,0.355,97.2,2025-07-16T19:05:34.603759,83,2
calm,0,59.209,30.0,0.318,0.147,17.575,36.34,0.033,0.001,9.917,0.528,97.5,2025-07-16T19:05:35.603759,84,2
calm,0,78.825,49.044,0.214,0.129,15.454,36.72,0.099,-0.246,9.815,0.324,97.1,2025-07-16T19:05:36.603759,85,2
calm,0,73.971,58.115,0.224,0.0,15.672,36.61,0.0,0.0,9.8,0.662,97.0,2025-07-16T19:05:37.603759,86,2
calm,0,70.982,35.346,0.403,0.155,14.163,36.55,-0.062,0.236,9.711,0.455,96.6,2025-07-16T19:05:38.603759,87,2
calm,0,66.056,32.62,0.319,0.068,15.864,36.4,-0.006,0.061,9.738,0.103,97.3,2025-07-16T19:05:39.603759,88,2
calm,0,80.664,43.306,0.381,0.001,14.983,36.59,0.001,-0.0,9.8,0.301,97.1,2025-07-16T19:05:40.603759,89,2
calm,0,62.654,47.59,0.309,0.156,16.321,36.36,0.195,-0.024,9.832,0.406,97.3,2025-07-16T19:05:41.603759,90,2
calm,0,70.302,65.0,0.371,0.218,10.219,36.58,0.74,0.001,9.781,0.229,96.8,2025-07-16T19:05:42.603759,91,2
calm,0,55.556,33.644,0.34,0.045,14.8,36.26,0.003,-0.168,9.805,0.918,96.5,2025-07-16T19:05:43.603759,92,2
calm,0,82.615,30.353,0.452,0.155,15.653,36.76,0.119,-0.279,9.862,0.937,96.2,2025-07-16T19:05:44.603759,93,2
calm,0,73.912,41.735,0.243,0.114,10.455,36.58,-0.011,-0.045,9.838,0.572,96.9,2025-07-16T19:05:45.603759,94,2
calm,0,78.132,64.107,0.344,0.024,14.464,36.75,0.0,0.022,9.778,0.941,97.0,2025-07-16T19:05:46.603759,95,2
calm,0,65.598,38.615,0.39,0.127,14.095,36.51,0.008,-0.193,9.88,0.24,97.6,2025-07-16T19:05:47.603759,96,2
calm,0,60.292,51.421,0.295,0.157,15.604,36.55,0.028,-0.072,9.848,0.541,98.2,2025-07-16T19:05:48.603759,97,2
calm,0,82.103,30.0,0.225,0.123,17.882,36.6,0.128,-0.067,9.791,0.877,96.8,2025-07-16T19:05:49.603759,98,2
calm,0,77.514,45.614,0.283,0.077,10.0,36.67,-0.01,-0.159,9.852,0.127,97.0,2025-07-16T19:05:50.603759,99,2
calm,0,81.631,39.195,0.298,0.043,15.829,36.56,0.055,-0.006,9.84,0.166,96.3,2025-07-16T19:05:51.603759,100,2
calm,0,69.14,44.109,0.333,0.154,11.564,36.41,0.015,-0.247,9.673,0.765,97.3,2025-07-16T19:05:52.603759,101,2
calm,0,60.419,56.561,0.209,0.116,12.34,36.56,-0.074,-0.011,9.75,0.373,97.7,2025-07-16T19:05:53.603759,102,2
calm,0,75.225,35.602,0.459,0.053,16.434,36.55,0.005,0.028,9.795,0.73,97.2,2025-07-16T19:05:54.603759,103,2
calm,0,67.208,37.622,0.454,0.18,13.108,36.62,0.089,0.007,9.948,0.473,96.4,2025-07-16T19:05:55.603759,104,2
calm,0,76.828,31.848,0.251,0.059,11.444,36.65,0.104,-0.016,9.764,0.7,96.6,2025-07-16T19:05:56.603759,105,2
calm,0,75.284,48.107,0.434,0.114,15.347,36.51,0.093,-0.237,9.777,0.276,97.4,2025-07-16T19:05:57.603759,106,2
calm,0,71.638,43.146,0.344,0.104,14.086,36.59,0.052,0.027,9.86,0.282,96.9,2025-07-16T19:05:58.603759,107,2
calm,0,56.094,44.152,0.328,0.079,13.661,36.36,0.032,0.067,9.84,0.646,97.9,2025-07-16T19:05:59.603759,108,2
calm,0,71.626,43.947,0.315,0.064,14.098,36.46,-0.047,0.029,9.756,0.647,97.4,2025-07-16T19:06:00.603759,109,2
calm,0,71.155,41.519,0.261,0.124,15.801,36.32,0.107,0.08,9.835,0.849,96.9,2025-07-16T19:06:01.603759,110,2
calm,0,69.241,64.682,0.381,0.205,14.86,36.67,0.418,0.011,9.706,0.781,96.0,2025-07-16T19:06:02.603759,111,2
calm,0,81.613,35.222,0.25,0.081,16.745,36.77,0.039,-0.008,9.821,0.103,96.8,2025-07-16T19:06:03.603759,112,2
calm,0,78.177,43.591,0.303,0.172,14.646,36.75,0.017,-0.14,9.924,0.979,96.9,2025-07-16T19:06:04.603759,113,2
calm,0,62.217,46.685,0.403,0.042,13.228,36.4,0.014,-0.005,9.854,0.704,97.7,2025-07-16T19:06:05.603759,114,2
calm,0,57.066,54.007,0.21,0.066,13.7,36.38,-0.082,-0.028,9.781,0.702,98.5,2025-07-16T19:06:06.603759,115,2
calm,0,69.832,52.997,0.152,0.105,14.995,36.54,0.09,0.028,9.813,0.716,97.0,2025-07-16T19:06:07.603759,116,2
calm,0,75.945,56.985,0.394,0.0,14.098,36.4,0.0,0.0,9.8,0.915,96.7,2025-07-16T19:06:08.603759,117,2
calm,0,64.677,40.659,0.235,0.13,15.844,36.67,-0.147,0.032,9.978,0.343,96.7,2025-07-16T19:06:09.603759,118,2
calm,0,81.821,59.113,0.208,0.166,12.615,36.91,0.124,-0.091,9.836,0.113,96.4,2025-07-16T19:06:10.603759,119,2
calm,0,57.652,56.57,0.291,0.048,11.441,36.36,-0.024,-0.012,9.764,0.769,97.5,2025-07-16T19:06:11.603759,120,2
calm,0,61.083,49.747,0.407,0.101,12.263,36.32,-0.14,-0.153,9.803,0.683,96.9,2025-07-16T19:06:12.603759,121,2
calm,0,79.126,56.475,0.348,0.216,17.879,36.65,0.217,-0.154,9.795,0.968,96.7,2025-07-16T19:06:13.603759,122,2
calm,0,63.176,30.039,0.194,0.034,11.868,36.61,-0.034,-0.016,9.781,0.311,97.7,2025-07-16T19:06:14.603759,123,2
calm,0,85.0,48.913,0.303,0.1,16.814,36.77,0.041,-0.065,9.722,0.504,97.0,2025-07-16T19:06:15.603759,124,2
calm,0,80.278,46.235,0.159,0.099,15.309,36.57,-0.072,-0.007,9.833,0.607,96.8,2025-07-16T19:06:16.603759,125,2
calm,0,70.144,60.586,0.287,0.142,14.228,36.65,-0.029,-0.283,9.826,0.119,97.4,2025-07-16T19:06:17.603759,126,2
calm,0,84.365,41.562,0.232,0.16,13.325,36.78,0.139,0.029,9.751,0.298,96.8,2025-07-16T19:06:18.603759,127,2
calm,0,63.024,30.566,0.265,0.009,10.812,36.38,0.002,0.005,9.797,0.738,97.0,2025-07-16T19:06:19.603759,128,2
calm,0,77.02,30.0,0.171,0.073,14.311,36.64,-0.003,-0.005,9.758,0.556,97.2,2025-07-16T19:06:20.603759,129,2
calm,0,76.799,34.486,0.299,0.073,11.293,36.49,0.011,0.066,9.795,0.998,96.7,2025-07-16T19:06:21.603759,130,2
calm,0,73.077,46.356,0.198,0.117,12.91,36.75,-0.239,-0.092,9.846,0.965,97.2,2025-07-16T19:06:22.603759,131,2
calm,0,66.107,30.806,0.15,0.087,14.226,36.54,-0.031,0.026,9.85,0.526,97.0,2025-07-16T19:06:23.603759,132,2
calm,0,73.357,61.19,0.297,0.083,14.236,36.53,-0.0,0.127,9.92,0.362,96.2,2025-07-16T19:06:24.603759,133,2
calm,0,74.044,48.976,0.184,0.035,18.0,36.69,-0.05,-0.02,9.79,0.593,97.4,2025-07-16T19:06:25.603759,134,2
calm,0,82.502,53.315,0.191,0.099,14.354,36.65,0.018,-0.019,9.851,0.929,95.4,2025-07-16T19:06:26.603759,135,2
calm,0,72.363,64.002,0.24,0.143,15.346,36.54,-0.02,-0.107,9.788,0.884,96.7,2025-07-16T19:06:27.603759,136,2
calm,0,55.0,44.878,0.231,0.134,16.113,36.36,-0.229,-0.01,9.912,0.289,97.7,2025-07-16T19:06:28.603759,137,2
calm,0,69.779,46.902,0.379,0.212,11.482,36.79,-0.21,-0.046,9.858,0.605,96.0,2025-07-16T19:06:29.603759,138,2
calm,0,66.132,49.627,0.392,0.092,10.0,36.63,0.124,-0.044,9.785,0.875,96.8,2025-07-16T19:06:30.603759,139,2
calm,0,71.96,43.612,0.262,0.102,17.93,36.56,0.034,0.04,9.836,0.715,97.9,2025-07-16T19:06:31.603759,140,2
calm,0,60.774,42.19,0.5,0.037,18.0,36.42,0.037,0.02,9.786,0.32,97.2,2025-07-16T19:06:32.603759,141,2
calm,0,66.504,49.46,0.162,0.143,13.752,36.59,-0.23,0.026,9.865,0.59,97.8,2025-07-16T19:06:33.603759,142,2
calm,0,83.324,62.14,0.151,0.16,10.465,36.74,0.013,0.096,9.803,0.186,95.9,2025-07-16T19:06:34.603759,143,2
calm,0,68.771,32.762,0.222,0.041,14.25,36.54,0.015,0.047,9.78,0.814,97.2,2025-07-16T19:06:35.603759,144,2
calm,0,84.539,36.444,0.463,0.145,12.422,36.77,-0.297,-0.023,9.732,0.662,96.3,2025-07-16T19:06:36.603759,145,2
calm,0,56.656,48.343,0.27,0.111,14.544,36.46,-0.071,0.063,9.834,0.171,97.7,2025-07-16T19:06:37.603759,146,2
calm,0,66.564,47.953,0.233,0.147,14.083,36.5,-0.059,-0.227,9.763,0.532,97.3,2025-07-16T19:06:38.603759,147,2
calm,0,69.346,51.348,0.442,0.057,14.84,36.62,-0.032,0.035,9.832,0.157,97.1,2025-07-16T19:06:39.603759,148,2
calm,0,72.909,53.889,0.261,0.122,13.126,36.73,-0.052,-0.122,9.897,0.309,97.5,2025-07-16T19:06:40.603759,149,2
calm,0,57.357,44.3,0.272,0.014,15.573,36.48,0.009,-0.009,9.799,0.368,97.4,2025-07-16T19:06:41.603759,150,2
calm,0,83.81,41.249,0.248,0.083,13.603,36.74,0.054,0.004,9.846,0.972,97.2,2025-07-16T19:06:42.603759,151,2
calm,0,74.537,32.963,0.387,0.126,13.4,36.83,0.108,0.023,9.742,0.61,97.3,2025-07-16T19:06:43.603759,152,2
calm,0,75.212,46.869,0.175,0.187,14.905,36.62,0.52,0.226,9.911,0.907,97.4,2025-07-16T19:06:44.603759,153,2
calm,0,77.464,52.058,0.468,0.07,11.398,36.7,0.042,-0.178,9.792,0.618,95.7,2025-07-16T19:06:45.603759,154,2
calm,0,78.025,51.126,0.443,0.17,14.34,36.46,0.101,-0.048,9.715,0.15,96.6,2025-07-16T19:06:46.603759,155,2
calm,0,76.228,39.961,0.269,0.097,13.982,36.6,-0.073,0.266,9.862,0.41,97.4,2025-07-16T19:06:47.603759,156,2
calm,0,66.645,36.828,0.333,0.013,15.069,36.46,0.029,-0.007,9.801,0.385,96.9,2025-07-16T19:06:48.603759,157,2
calm,0,71.271,57.665,0.315,0.134,12.859,36.64,-0.2,0.118,9.789,0.199,96.3,2025-07-16T19:06:49.603759,158,2
calm,0,71.897,46.736,0.334,0.105,13.708,36.66,-0.037,-0.081,9.776,0.876,96.9,2025-07-16T19:06:50.603759,159,2
calm,0,76.069,34.315,0.417,0.129,10.583,36.38,-0.007,0.113,9.809,0.236,96.2,2025-07-16T19:06:51.603759,160,2
calm,0,67.611,51.679,0.242,0.07,14.862,36.56,-0.119,0.004,9.75,0.806,96.7,2025-07-16T19:06:52.603759,161,2
calm,0,69.538,33.885,0.279,0.088,12.381,36.58,-0.154,0.034,9.799,0.19,97.3,2025-07-16T19:06:53.603759,162,2
calm,0,73.891,45.558,0.384,0.124,14.575,36.53,-0.173,0.058,9.812,0.251,96.1,2025-07-16T19:06:54.603759,163,2
calm,0,56.125,33.663,0.41,0.169,16.253,36.62,-0.083,-0.193,9.798,0.249,98.1,2025-07-16T19:06:55.603759,164,2
calm,0,61.573,44.968,0.259,0.15,16.361,36.68,-0.022,-0.125,10.01,0.725,97.3,2025-07-16T19:06:56.603759,165,2
calm,0,59.211,55.624,0.393,0.105,14.259,36.43,-0.013,0.071,9.791,0.237,97.0,2025-07-16T19:06:57.603759,166,2
calm,0,74.105,49.392,0.267,0.0,16.848,36.67,0.0,0.0,9.8,0.273,95.6,2025-07-16T19:06:58.603759,167,2
calm,0,70.102,55.844,0.259,0.141,17.107,36.6,-0.005,-0.008,9.96,0.482,97.4,2025-07-16T19:06:59.603759,168,2
calm,0,73.999,45.885,0.412,0.075,11.023,36.64,-0.044,-0.122,9.833,0.943,97.3,2025-07-16T19:07:00.603759,169,2
calm,0,79.423,32.5,0.181,0.128,10.0,36.67,0.033,-0.2,9.823,0.579,97.7,2025-07-16T19:07:01.603759,170,2
calm,0,62.703,61.346,0.3,0.06,11.691,36.5,0.169,-0.03,9.801,0.25,97.7,2025-07-16T19:07:02.603759,171,2
calm,0,77.043,46.21,0.226,0.085,14.495,36.65,0.104,-0.172,9.775,0.279,97.7,2025-07-16T19:07:03.603759,172,2
calm,0,73.064,31.996,0.377,0.061,16.143,36.64,-0.056,0.034,9.762,0.685,96.3,2025-07-16T19:07:04.603759,173,2
calm,0,71.625,45.887,0.336,0.037,14.598,36.61,-0.003,0.057,9.793,0.744,97.1,2025-07-16T19:07:05.603759,174,2
calm,0,76.556,48.141,0.233,0.087,12.335,36.53,-0.03,-0.015,9.853,0.231,97.9,2025-07-16T19:07:06.603759,175,2
calm,0,66.663,35.103,0.402,0.008,11.747,36.46,-0.003,-0.012,9.798,0.41,96.6,2025-07-16T19:07:07.603759,176,2
calm,0,69.395,44.044,0.485,0.085,12.841,36.61,-0.142,-0.021,9.814,0.317,96.5,2025-07-16T19:07:08.603759,177,2
calm,0,63.606,54.295,0.335,0.074,16.431,36.57,0.037,0.027,9.783,0.105,96.5,2025-07-16T19:07:09.603759,178,2
calm,0,63.282,59.26,0.27,0.048,13.132,36.33,0.001,-0.006,9.816,0.268,97.7,2025-07-16T19:07:10.603759,179,2
focused,1,67.581,58.465,0.304,0.049,13.035,36.323,-0.035,-0.034,9.814,0.915,97.5,2025-07-16T19:07:11.603759,180,2
focused,1,82.682,44.937,0.485,0.058,12.898,36.7,0.043,-0.07,9.81,0.545,95.9,2025-07-16T19:07:12.603759,181,2
focused,1,86.104,54.252,0.35,0.018,15.241,36.82,0.013,-0.009,9.806,0.341,96.1,2025-07-16T19:07:13.603759,182,2
focused,1,71.992,41.834,0.356,0.1,13.562,36.7,0.102,-0.031,9.813,0.818,97.2,2025-07-16T19:07:14.603759,183,2
focused,1,65.992,46.207,0.352,0.011,12.631,36.35,0.021,-0.006,9.808,0.223,97.0,2025-07-16T19:07:15.603759,184,2
focused,1,79.183,60.088,0.383,0.043,16.707,36.72,0.022,0.057,9.812,0.792,97.0,2025-07-16T19:07:16.603759,185,2
focused,1,69.813,50.086,0.399,0.046,15.704,36.47,-0.019,-0.044,9.812,0.104,97.0,2025-07-16T19:07:17.603759,186,2
focused,1,72.054,47.147,0.374,0.07,14.507,36.54,-0.027,0.028,9.755,0.256,96.2,2025-07-16T19:07:18.603759,187,2
focused,1,76.961,55.006,0.363,0.058,16.15,36.58,-0.037,-0.091,9.781,0.46,97.4,2025-07-16T19:07:19.603759,188,2
focused,1,78.429,45.881,0.411,0.048,14.531,36.79,-0.061,-0.017,9.809,0.947,96.4,2025-07-16T19:07:20.603759,189,2
focused,1,83.746,47.352,0.548,0.049,15.437,36.81,-0.12,-0.107,9.781,0.234,96.5,2025-07-16T19:07:21.603759,190,2
focused,1,66.937,67.313,0.408,0.03,17.85,36.41,-0.025,-0.009,9.816,0.412,96.8,2025-07-16T19:07:22.603759,191,2
focused,1,76.722,53.219,0.423,0.034,16.677,36.54,-0.017,0.019,9.786,0.764,96.4,2025-07-16T19:07:23.603759,192,2
focused,1,80.478,42.357,0.355,0.017,14.258,36.81,-0.006,0.033,9.805,0.957,96.2,2025-07-16T19:07:24.603759,193,2
focused,1,74.654,43.534,0.411,0.045,14.758,36.49,0.087,0.056,9.783,0.449,96.5,2025-07-16T19:07:25.603759,194,2
focused,1,77.015,51.607,0.263,0.037,14.851,36.53,-0.017,-0.047,9.812,0.62,96.0,2025-07-16T19:07:26.603759,195,2
focused,1,70.362,60.03,0.414,0.079,15.35,36.6,0.087,0.018,9.778,0.712,96.1,2025-07-16T19:07:27.603759,196,2
focused,1,68.983,56.394,0.384,0.071,15.817,36.58,-0.074,-0.127,9.773,0.402,96.9,2025-07-16T19:07:28.603759,197,2
focused,1,65.0,47.208,0.479,0.076,12.0,36.61,-0.018,0.168,9.848,0.804,97.1,2025-07-16T19:07:29.603759,198,2
focused,1,76.342,42.838,0.421,0.07,13.508,36.58,0.049,-0.048,9.799,0.265,96.8,2025-07-16T19:07:30.603759,199,2
focused,1,69.699,37.336,0.492,0.048,13.424,36.61,-0.009,-0.014,9.748,0.642,96.8,2025-07-16T19:07:31.603759,200,2
focused,1,73.42,40.232,0.312,0.053,15.664,36.57,-0.1,0.016,9.837,0.688,96.6,2025-07-16T19:07:32.603759,201,2
focused,1,74.302,46.574,0.467,0.012,18.0,36.63,-0.0,0.014,9.796,0.183,96.3,2025-07-16T19:07:33.603759,202,2
focused,1,76.591,49.046,0.469,0.067,14.66,36.43,0.109,-0.018,9.805,0.704,96.6,2025-07-16T19:07:34.603759,203,2
focused,1,72.572,49.623,0.404,0.048,14.577,36.65,-0.001,0.03,9.845,0.621,97.3,2025-07-16T19:07:35.603759,204,2
focused,1,75.927,46.044,0.469,0.057,15.41,36.64,0.037,-0.024,9.787,0.243,96.9,2025-07-16T19:07:36.603759,205,2
focused,1,74.716,43.184,0.364,0.065,16.772,36.67,0.109,-0.026,9.759,0.959,96.6,2025-07-16T19:07:37.603759,206,2
focused,1,86.263,54.493,0.418,0.064,16.542,36.89,0.073,-0.112,9.837,0.622,96.0,2025-07-16T19:07:38.603759,207,2
focused,1,72.986,51.152,0.495,0.068,15.08,36.61,-0.043,-0.067,9.787,0.218,96.4,2025-07-16T19:07:39.603759,208,2
focused,1,74.955,51.847,0.362,0.049,13.789,36.44,-0.088,0.013,9.83,0.194,96.9,2025-07-16T19:07:40.603759,209,2
focused,1,78.004,36.306,0.403,0.053,15.608,36.58,0.051,-0.052,9.821,0.168,96.4,2025-07-16T19:07:41.603759,210,2
focused,1,76.525,36.776,0.343,0.049,14.542,36.55,0.085,-0.029,9.828,0.951,96.3,2025-07-16T19:07:42.603759,211,2
focused,1,75.913,48.755,0.485,0.078,13.621,36.78,-0.025,0.01,9.836,0.468,95.5,2025-07-16T19:07:43.603759,212,2
focused,1,79.03,45.32,0.419,0.057,13.984,36.78,-0.033,-0.035,9.864,0.876,96.8,2025-07-16T19:07:44.603759,213,2
focused,1,76.821,44.562,0.416,0.022,15.973,36.58,-0.003,0.007,9.816,0.373,96.2,2025-07-16T19:07:45.603759,214,2
focused,1,69.553,57.357,0.404,0.008,12.645,36.6,0.007,-0.007,9.801,0.498,96.6,2025-07-16T19:07:46.603759,215,2
focused,1,75.113,57.801,0.366,0.056,15.652,36.61,-0.078,0.022,9.74,0.563,96.5,2025-07-16T19:07:47.603759,216,2
focused,1,73.919,55.77,0.337,0.066,17.95,36.5,-0.035,0.022,9.819,0.79,97.2,2025-07-16T19:07:48.603759,217,2
focused,1,85.566,41.227,0.405,0.059,15.667,36.68,0.028,-0.063,9.83,0.279,95.2,2025-07-16T19:07:49.603759,218,2
focused,1,70.361,35.149,0.47,0.08,16.931,36.59,-0.029,0.122,9.814,0.722,96.3,2025-07-16T19:07:50.603759,219,2
focused,1,71.845,39.948,0.408,0.0,15.792,36.47,0.0,0.0,9.8,0.82,96.6,2025-07-16T19:07:51.603759,220,2
focused,1,75.957,48.301,0.394,0.049,15.576,36.45,-0.041,-0.002,9.83,0.994,97.7,2025-07-16T19:07:52.603759,221,2
focused,1,65.0,57.241,0.429,0.071,13.545,36.46,-0.006,0.01,9.811,0.638,97.0,2025-07-16T19:07:53.603759,222,2
focused,1,86.521,48.318,0.292,0.04,17.062,36.74,0.002,-0.013,9.775,0.23,97.6,2025-07-16T19:07:54.603759,223,2
focused,1,73.596,39.847,0.346,0.035,14.851,36.46,-0.03,0.013,9.819,0.604,97.1,2025-07-16T19:07:55.603759,224,2
focused,1,75.378,47.645,0.395,0.052,13.931,36.6,0.08,0.056,9.74,0.772,96.2,2025-07-16T19:07:56.603759,225,2
focused,1,79.093,60.195,0.37,0.052,17.522,36.47,-0.049,0.001,9.805,0.722,96.8,2025-07-16T19:07:57.603759,226,2
focused,1,77.361,58.335,0.422,0.026,15.843,36.48,-0.006,-0.008,9.8,0.676,97.9,2025-07-16T19:07:58.603759,227,2
focused,1,74.701,49.816,0.326,0.062,17.701,36.66,0.027,-0.027,9.823,0.191,97.1,2025-07-16T19:07:59.603759,228,2
focused,1,78.443,52.955,0.473,0.065,14.82,36.59,0.009,-0.025,9.789,0.34,96.3,2025-07-16T19:08:00.603759,229,2
focused,1,71.364,59.914,0.294,0.029,17.834,36.45,-0.087,0.011,9.785,0.604,97.9,2025-07-16T19:08:01.603759,230,2
focused,1,85.531,36.004,0.429,0.056,12.932,36.74,-0.101,0.057,9.779,0.281,97.1,2025-07-16T19:08:02.603759,231,2
focused,1,77.759,58.422,0.342,0.055,13.717,36.57,0.049,0.044,9.778,0.837,97.3,2025-07-16T19:08:03.603759,232,2
focused,1,77.115,53.77,0.285,0.04,12.452,36.71,0.012,0.021,9.82,0.329,97.1,2025-07-16T19:08:04.603759,233,2
focused,1,76.101,50.888,0.387,0.024,15.187,36.56,-0.038,0.009,9.806,0.23,97.6,2025-07-16T19:08:05.603759,234,2
focused,1,69.323,45.487,0.408,0.046,16.199,36.57,0.017,0.08,9.787,0.35,96.7,2025-07-16T19:08:06.603759,235,2
focused,1,78.796,58.46,0.387,0.042,14.717,36.54,-0.039,0.016,9.786,0.247,96.7,2025-07-16T19:08:07.603759,236,2
focused,1,75.799,35.0,0.501,0.082,15.991,36.49,0.024,0.13,9.811,0.257,97.1,2025-07-16T19:08:08.603759,237,2
focused,1,65.0,40.404,0.364,0.05,16.47,36.66,-0.052,-0.031,9.814,0.115,96.5,2025-07-16T19:08:09.603759,238,2
focused,1,66.421,56.232,0.39,0.096,15.388,36.57,0.022,0.115,9.832,0.183,95.9,2025-07-16T19:08:10.603759,239,2
focused,1,69.794,45.471,0.344,0.032,14.675,36.4,-0.071,-0.023,9.774,0.151,96.1,2025-07-16T19:08:11.603759,240,2
focused,1,77.089,42.157,0.479,0.041,15.342,36.85,-0.041,-0.04,9.795,0.372,95.6,2025-07-16T19:08:12.603759,241,2
focused,1,80.445,54.86,0.315,0.034,12.556,36.74,-0.006,-0.015,9.808,0.593,96.6,2025-07-16T19:08:13.603759,242,2
focused,1,79.561,35.0,0.375,0.066,14.11,36.63,0.032,-0.091,9.802,0.371,97.0,2025-07-16T19:08:14.603759,243,2
focused,1,65.747,46.83,0.445,0.014,12.034,36.56,0.01,-0.012,9.78,0.333,97.0,2025-07-16T19:08:15.603759,244,2
focused,1,70.939,44.239,0.43,0.072,13.042,36.64,-0.033,-0.016,9.846,0.211,96.8,2025-07-16T19:08:16.603759,245,2
focused,1,74.066,50.187,0.384,0.031,15.988,36.61,-0.035,-0.001,9.811,0.264,96.8,2025-07-16T19:08:17.603759,246,2
focused,1,65.123,38.063,0.501,0.063,16.796,36.49,0.022,0.048,9.799,0.746,97.2,2025-07-16T19:08:18.603759,247,2
focused,1,77.798,43.917,0.34,0.034,16.127,36.56,0.041,0.042,9.792,0.475,96.7,2025-07-16T19:08:19.603759,248,2
focused,1,67.282,38.056,0.395,0.037,15.456,36.51,-0.018,0.061,9.806,0.32,96.4,2025-07-16T19:08:20.603759,249,2
focused,1,78.348,41.346,0.402,0.075,14.371,36.63,0.028,0.018,9.793,0.506,96.5,2025-07-16T19:08:21.603759,250,2
focused,1,76.535,43.839,0.314,0.0,15.267,36.58,0.0,0.0,9.8,0.365,97.0,2025-07-16T19:08:22.603759,251,2
focused,1,79.567,47.233,0.352,0.054,14.809,36.58,0.036,0.006,9.801,0.273,97.4,2025-07-16T19:08:23.603759,252,2
focused,1,77.404,45.631,0.35,0.01,16.276,36.54,0.007,0.017,9.806,0.16,96.6,2025-07-16T19:08:24.603759,253,2
focused,1,77.343,49.882,0.344,0.0,15.178,36.53,0.0,0.0,9.8,0.689,96.7,2025-07-16T19:08:25.603759,254,2
focused,1,79.015,46.711,0.434,0.045,18.0,36.32,0.048,0.002,9.829,0.443,96.3,2025-07-16T19:08:26.603759,255,2
focused,1,68.42,40.237,0.404,0.073,18.0,36.54,0.051,0.068,9.795,0.281,97.3,2025-07-16T19:08:27.603759,256,2
focused,1,78.17,42.41,0.478,0.053,15.13,36.53,0.045,-0.023,9.774,0.614,96.1,2025-07-16T19:08:28.603759,257,2
focused,1,68.882,57.076,0.365,0.049,12.62,36.57,0.016,0.057,9.82,0.144,96.4,2025-07-16T19:08:29.603759,258,2
focused,1,75.211,52.418,0.467,0.062,15.527,36.79,0.084,0.038,9.794,0.46,95.9,2025-07-16T19:08:30.603759,259,2
focused,1,65.625,45.278,0.372,0.044,14.403,36.53,-0.01,0.023,9.819,0.428,96.6,2025-07-16T19:08:31.603759,260,2
focused,1,65.0,58.079,0.269,0.059,17.196,36.54,-0.026,0.093,9.819,0.188,96.5,2025-07-16T19:08:32.603759,261,2
focused,1,69.321,57.061,0.362,0.037,15.273,36.44,-0.015,0.026,9.803,0.484,97.1,2025-07-16T19:08:33.603759,262,2
focused,1,72.925,52.292,0.263,0.037,14.537,36.57,-0.002,-0.011,9.799,0.374,97.2,2025-07-16T19:08:34.603759,263,2
focused,1,76.446,53.244,0.317,0.029,16.1,36.47,-0.024,-0.026,9.798,0.403,96.5,2025-07-16T19:08:35.603759,264,2
focused,1,77.989,51.676,0.338,0.037,17.445,36.54,-0.021,-0.012,9.801,0.739,97.2,2025-07-16T19:08:36.603759,265,2
focused,1,68.918,62.036,0.408,0.062,16.105,36.57,-0.022,-0.018,9.806,0.609,96.7,2025-07-16T19:08:37.603759,266,2
focused,1,81.451,50.901,0.413,0.087,17.441,36.79,0.17,-0.097,9.752,0.284,96.3,2025-07-16T19:08:38.603759,267,2
focused,1,78.713,48.664,0.361,0.028,12.279,36.42,-0.002,-0.034,9.793,0.143,96.5,2025-07-16T19:08:39.603759,268,2
focused,1,74.261,53.471,0.367,0.055,14.813,36.56,-0.021,0.045,9.83,0.149,97.1,2025-07-16T19:08:40.603759,269,2
focused,1,65.0,52.949,0.459,0.059,14.373,36.54,0.047,-0.004,9.801,0.568,97.8,2025-07-16T19:08:41.603759,270,2
focused,1,84.414,67.007,0.354,0.038,15.215,36.71,-0.012,-0.025,9.794,0.245,96.3,2025-07-16T19:08:42.603759,271,2
focused,1,74.671,43.391,0.498,0.045,14.906,36.56,-0.087,-0.032,9.797,0.224,96.5,2025-07-16T19:08:43.603759,272,2
focused,1,67.129,37.785,0.381,0.093,14.157,36.66,0.194,0.098,9.758,0.515,97.4,2025-07-16T19:08:44.603759,273,2
focused,1,67.668,48.115,0.383,0.026,13.999,36.44,0.016,0.009,9.795,0.599,97.6,2025-07-16T19:08:45.603759,274,2
focused,1,69.283,55.917,0.436,0.038,15.658,36.58,-0.012,-0.011,9.791,0.165,96.3,2025-07-16T19:08:46.603759,275,2
focused,1,77.45,55.454,0.39,0.059,14.54,36.55,0.072,0.014,9.777,0.821,97.5,2025-07-16T19:08:47.603759,276,2
focused,1,84.212,36.221,0.331,0.08,13.775,36.77,-0.061,0.071,9.756,0.42,96.1,2025-07-16T19:08:48.603759,277,2
focused,1,78.867,48.389,0.365,0.061,14.472,36.79,0.067,0.007,9.794,0.112,97.4,2025-07-16T19:08:49.603759,278,2
focused,1,67.303,56.105,0.311,0.06,16.62,36.51,0.053,0.016,9.786,0.166,97.0,2025-07-16T19:08:50.603759,279,2
focused,1,75.839,46.717,0.417,0.062,15.885,36.61,-0.002,0.083,9.801,0.912,96.1,2025-07-16T19:08:51.603759,280,2
focused,1,66.065,55.305,0.437,0.069,16.619,36.3,0.192,0.041,9.742,0.723,97.0,2025-07-16T19:08:52.603759,281,2
focused,1,74.311,51.549,0.483,0.072,13.685,36.57,-0.046,0.08,9.874,0.817,96.3,2025-07-16T19:08:53.603759,282,2
focused,1,67.982,49.599,0.348,0.085,13.96,36.51,-0.104,-0.093,9.85,0.939,96.8,2025-07-16T19:08:54.603759,283,2
focused,1,69.053,41.53,0.521,0.045,14.503,36.57,-0.015,-0.03,9.802,0.702,96.5,2025-07-16T19:08:55.603759,284,2
focused,1,79.498,48.775,0.416,0.026,14.425,36.61,0.013,0.067,9.783,0.489,96.3,2025-07-16T19:08:56.603759,285,2
focused,1,66.089,41.509,0.37,0.058,14.73,36.57,-0.063,-0.032,9.829,0.244,97.0,2025-07-16T19:08:57.603759,286,2
focused,1,74.965,65.28,0.391,0.034,16.493,36.4,-0.002,0.011,9.788,0.104,97.3,2025-07-16T19:08:58.603759,287,2
focused,1,83.74,38.077,0.501,0.039,15.14,36.67,-0.004,0.016,9.787,0.584,96.0,2025-07-16T19:08:59.603759,288,2
focused,1,77.358,41.625,0.475,0.039,14.314,36.6,-0.009,-0.021,9.793,0.681,96.5,2025-07-16T19:09:00.603759,289,2
focused,1,73.038,46.374,0.389,0.03,15.095,36.63,-0.027,0.045,9.783,0.245,97.8,2025-07-16T19:09:01.603759,290,2
focused,1,71.945,49.155,0.55,0.024,12.916,36.73,0.004,0.046,9.827,0.46,97.6,2025-07-16T19:09:02.603759,291,2
focused,1,83.622,46.744,0.483,0.062,14.829,36.54,-0.02,-0.031,9.828,0.307,96.1,2025-07-16T19:09:03.603759,292,2
focused,1,77.309,48.767,0.343,0.033,14.266,36.47,0.015,-0.022,9.815,0.264,97.3,2025-07-16T19:09:04.603759,293,2
focused,1,80.461,46.966,0.323,0.037,14.509,36.66,-0.016,0.039,9.812,0.576,96.9,2025-07-16T19:09:05.603759,294,2
focused,1,67.696,45.765,0.341,0.038,14.491,36.74,-0.001,0.063,9.839,0.598,97.2,2025-07-16T19:09:06.603759,295,2
focused,1,72.249,47.415,0.352,0.044,13.235,36.33,0.077,0.06,9.823,0.337,96.5,2025-07-16T19:09:07.603759,296,2
focused,1,68.808,48.407,0.387,0.034,14.995,36.48,0.027,0.023,9.786,0.962,97.6,2025-07-16T19:09:08.603759,297,2
focused,1,72.328,69.131,0.442,0.049,15.754,36.26,-0.073,-0.026,9.798,0.194,97.7,2025-07-16T19:09:09.603759,298,2
focused,1,79.421,55.792,0.436,0.06,12.26,36.77,-0.053,-0.001,9.835,0.996,97.4,2025-07-16T19:09:10.603759,299,2
calm,0,78.615,41.051,0.289,0.082,10.53,36.68,-0.072,0.052,9.812,0.94,97.0,2025-07-16T19:04:11.654949,0,3
calm,0,64.455,43.323,0.15,0.08,14.595,36.5,0.145,-0.055,9.866,0.956,97.5,2025-07-16T19:04:12.654949,1,3
calm,0,70.717,46.34,0.43,0.101,12.166,36.61,0.099,-0.12,9.778,0.547,95.5,2025-07-16T19:04:13.654949,2,3
calm,0,66.079,44.379,0.344,0.143,11.654,36.43,-0.159,0.031,9.771,0.267,96.1,2025-07-16T19:04:14.654949,3,3
calm,0,75.249,41.942,0.264,0.098,15.995,36.79,0.046,-0.037,9.77,0.604,97.7,2025-07-16T19:04:15.654949,4,3
calm,0,77.091,53.712,0.431,0.174,13.255,36.78,-0.236,-0.066,9.81,0.231,96.6,2025-07-16T19:04:16.654949,5,3
calm,0,65.725,49.059,0.298,0.128,12.745,36.61,0.138,-0.026,9.871,0.357,97.3,2025-07-16T19:04:17.654949,6,3
calm,0,70.202,40.872,0.245,0.199,14.121,36.47,0.043,0.137,9.954,0.387,97.6,2025-07-16T19:04:18.654949,7,3
calm,0,72.728,43.971,0.395,0.045,13.201,36.66,-0.035,-0.031,9.799,0.489,97.5,2025-07-16T19:04:19.654949,8,3
calm,0,68.443,58.921,0.346,0.134,13.567,36.48,0.145,0.011,9.707,0.63,96.5,2025-07-16T19:04:20.654949,9,3
calm,0,80.08,41.154,0.291,0.075,14.561,36.7,0.06,0.118,9.808,0.457,96.8,2025-07-16T19:04:21.654949,10,3
calm,0,78.783,59.366,0.264,0.037,10.503,36.59,-0.054,-0.01,9.779,0.807,96.6,2025-07-16T19:04:22.654949,11,3
calm,0,75.85,46.335,0.351,0.139,11.127,36.66,0.046,0.144,9.692,0.969,96.6,2025-07-16T19:04:23.654949,12,3
calm,0,67.331,49.208,0.276,0.084,13.997,36.34,0.052,-0.019,9.792,0.728,97.4,2025-07-16T19:04:24.654949,13,3
calm,0,68.471,40.938,0.307,0.155,10.078,36.55,-0.044,0.058,9.741,0.952,96.8,2025-07-16T19:04:25.654949,14,3
calm,0,55.0,61.268,0.187,0.155,12.978,36.44,-0.169,0.025,9.881,0.557,98.0,2025-07-16T19:04:26.654949,15,3
calm,0,75.995,65.0,0.308,0.153,16.326,36.67,-0.22,-0.108,9.845,0.9,97.2,2025-07-16T19:04:27.654949,16,3
calm,0,78.37,47.189,0.352,0.107,11.733,36.71,-0.124,-0.07,9.834,0.159,96.2,2025-07-16T19:04:28.654949,17,3
calm,0,73.167,40.666,0.15,0.053,15.721,36.4,-0.003,0.124,9.783,0.8,97.1,2025-07-16T19:04:29.654949,18,3
calm,0,75.628,40.041,0.24,0.074,13.138,36.59,0.154,-0.049,9.835,0.47,96.7,2025-07-16T19:04:30.654949,19,3
calm,0,77.163,30.907,0.371,0.186,12.738,36.6,-0.042,-0.17,9.684,0.875,97.4,2025-07-16T19:04:31.654949,20,3
calm,0,68.027,34.569,0.212,0.07,10.63,36.63,-0.086,0.068,9.877,0.258,97.5,2025-07-16T19:04:32.654949,21,3
calm,0,60.9,43.241,0.299,0.053,16.648,36.55,0.018,-0.038,9.798,0.281,96.0,2025-07-16T19:04:33.654949,22,3
calm,0,71.69,57.258,0.306,0.08,14.196,36.57,0.156,-0.059,9.895,0.859,96.5,2025-07-16T19:04:34.654949,23,3
calm,0,56.938,51.803,0.281,0.1,13.491,36.19,0.01,-0.056,9.762,0.487,97.9,2025-07-16T19:04:35.654949,24,3
calm,0,55.739,42.384,0.205,0.127,12.559,36.41,-0.094,0.063,9.767,0.925,97.6,2025-07-16T19:04:36.654949,25,3
calm,0,79.723,34.149,0.281,0.105,14.488,36.71,-0.138,-0.083,9.817,0.201,96.4,2025-07-16T19:04:37.654949,26,3
calm,0,65.304,54.54,0.329,0.052,15.158,36.61,-0.049,-0.019,9.803,0.575,96.8,2025-07-16T19:04:38.654949,27,3
calm,0,62.693,40.474,0.401,0.138,14.138,36.55,-0.044,-0.201,9.888,0.509,97.3,2025-07-16T19:04:39.654949,28,3
calm,0,83.154,40.793,0.325,0.203,11.925,36.82,-0.178,-0.113,9.671,0.37,96.6,2025-07-16T19:04:40.654949,29,3
calm,0,68.729,31.452,0.15,0.185,16.426,36.57,0.031,0.088,9.804,0.396,97.3,2025-07-16T19:04:41.654949,30,3
calm,0,63.74,41.985,0.165,0.078,17.875,36.41,-0.166,-0.15,9.824,0.461,98.2,2025-07-16T19:04:42.654949,31,3
calm,0,73.29,45.202,0.188,0.152,14.289,36.6,0.045,-0.072,9.757,0.336,96.8,2025-07-16T19:04:43.654949,32,3
calm,0,72.314,37.192,0.309,0.115,13.977,36.68,-0.006,-0.091,9.826,0.399,96.2,2025-07-16T19:04:44.654949,33,3
calm,0,75.491,35.082,0.262,0.105,17.004,36.56,0.082,-0.086,9.79,0.409,97.4,2025-07-16T19:04:45.654949,34,3
calm,0,80.268,30.0,0.367,0.074,17.166,36.65,0.003,0.003,9.735,0.351,96.5,2025-07-16T19:04:46.654949,35,3
calm,0,74.931,30.237,0.358,0.191,11.703,36.74,-0.109,0.118,9.865,0.612,97.4,2025-07-16T19:04:47.654949,36,3
calm,0,74.237,43.865,0.419,0.071,13.867,36.56,0.05,0.024,9.745,0.115,96.8,2025-07-16T19:04:48.654949,37,3
calm,0,78.509,50.905,0.418,0.085,11.785,36.67,0.072,-0.134,9.853,0.821,96.9,2025-07-16T19:04:49.654949,38,3
calm,0,58.481,37.776,0.333,0.12,13.188,36.6,-0.059,-0.166,9.757,0.965,97.0,2025-07-16T19:04:50.654949,39,3
calm,0,84.491,47.477,0.389,0.12,13.41,36.61,0.222,-0.093,9.791,0.226,96.0,2025-07-16T19:04:51.654949,40,3
calm,0,70.511,33.735,0.347,0.181,15.123,36.72,0.002,0.102,9.88,0.805,96.6,2025-07-16T19:04:52.654949,41,3
calm,0,68.071,46.088,0.282,0.196,16.359,36.64,0.027,-0.156,9.91,0.596,96.6,2025-07-16T19:04:53.654949,42,3
calm,0,62.097,38.771,0.25,0.142,16.578,36.53,0.017,-0.183,9.849,0.84,97.0,2025-07-16T19:04:54.654949,43,3
calm,0,55.0,38.179,0.331,0.16,17.993,36.46,0.049,0.23,9.821,0.817,97.4,2025-07-16T19:04:55.654949,44,3
calm,0,68.239,37.539,0.285,0.144,13.674,36.7,0.037,0.162,9.69,0.603,96.5,2025-07-16T19:04:56.654949,45,3
calm,0,77.665,44.842,0.394,0.09,11.906,36.55,0.086,-0.195,9.83,0.943,96.0,2025-07-16T19:04:57.654949,46,3
calm,0,55.359,59.742,0.2,0.124,17.105,36.31,-0.049,0.012,9.806,0.363,97.4,2025-07-16T19:04:58.654949,47,3
calm,0,77.435,57.02,0.386,0.08,16.565,36.67,0.034,0.034,9.732,0.606,97.8,2025-07-16T19:04:59.654949,48,3
calm,0,76.612,36.532,0.299,0.071,11.212,36.72,0.119,0.062,9.8,0.726,96.9,2025-07-16T19:05:00.654949,49,3
calm,0,61.711,49.775,0.155,0.193,15.109,36.54,-0.013,0.263,9.788,0.278,97.6,2025-07-16T19:05:01.654949,50,3
calm,0,83.185,56.319,0.17,0.19,15.417,36.65,-0.14,0.142,9.784,0.81,96.9,2025-07-16T19:05:02.654949,51,3
calm,0,73.08,55.739,0.313,0.141,11.441,36.49,-0.149,0.089,9.76,0.64,97.3,2025-07-16T19:05:03.654949,52,3
calm,0,61.595,46.754,0.25,0.124,16.29,36.55,-0.059,0.085,9.867,0.869,97.9,2025-07-16T19:05:04.654949,53,3
calm,0,73.45,45.735,0.343,0.129,13.14,36.69,-0.005,0.087,9.834,0.721,96.4,2025-07-16T19:05:05.654949,54,3
calm,0,74.337,44.517,0.29,0.086,17.772,36.53,0.052,-0.005,9.857,0.344,96.7,2025-07-16T19:05:06.654949,55,3
calm,0,67.195,52.423,0.287,0.117,12.691,36.65,-0.128,-0.089,9.801,0.467,96.3,2025-07-16T19:05:07.654949,56,3
calm,0,82.299,49.05,0.487,0.086,12.788,36.68,-0.055,0.099,9.77,0.147,96.1,2025-07-16T19:05:08.654949,57,3
calm,0,64.753,48.976,0.278,0.118,13.818,36.7,0.221,-0.087,9.815,0.352,97.7,2025-07-16T19:05:09.654949,58,3
calm,0,83.73,57.029,0.15,0.107,10.0,36.62,-0.189,-0.098,9.815,0.134,97.4,2025-07-16T19:05:10.654949,59,3
calm,0,55.0,63.241,0.214,0.125,15.352,36.34,0.193,0.081,9.766,0.663,98.1,2025-07-16T19:05:11.654949,60,3
calm,0,73.977,42.199,0.237,0.118,13.553,36.75,0.075,0.026,9.751,0.24,97.5,2025-07-16T19:05:12.654949,61,3
calm,0,66.274,49.221,0.294,0.0,16.172,36.32,0.0,0.0,9.8,0.668,97.7,2025-07-16T19:05:13.654949,62,3
calm,0,79.505,51.008,0.365,0.125,18.0,36.78,-0.029,-0.155,9.776,0.538,95.5,2025-07-16T19:05:14.654949,63,3
calm,0,74.71,35.497,0.269,0.062,14.342,36.72,0.054,-0.025,9.87,0.339,96.9,2025-07-16T19:05:15.654949,64,3
calm,0,74.829,30.194,0.333,0.08,11.449,36.66,0.106,0.162,9.858,0.242,97.4,2025-07-16T19:05:16.654949,65,3
calm,0,70.089,30.0,0.321,0.027,14.316,36.45,-0.03,-0.037,9.785,0.545,96.3,2025-07-16T19:05:17.654949,66,3
calm,0,75.67,45.772,0.189,0.111,17.69,36.47,0.206,0.031,9.756,0.957,96.7,2025-07-16T19:05:18.654949,67,3
calm,0,81.599,48.488,0.426,0.091,13.439,36.7,-0.067,-0.026,9.826,0.738,96.8,2025-07-16T19:05:19.654949,68,3
calm,0,61.476,30.457,0.336,0.067,12.182,36.48,-0.012,-0.102,9.813,0.116,97.4,2025-07-16T19:05:20.654949,69,3
calm,0,72.45,51.234,0.399,0.188,11.667,36.55,0.079,0.06,9.687,0.888,96.2,2025-07-16T19:05:21.654949,70,3
calm,0,75.766,30.0,0.15,0.089,15.209,36.41,0.06,-0.131,9.797,0.854,96.8,2025-07-16T19:05:22.654949,71,3
calm,0,79.156,39.606,0.269,0.156,14.525,36.77,-0.253,0.055,9.741,0.936,97.0,2025-07-16T19:05:23.654949,72,3
calm,0,55.617,30.0,0.261,0.181,16.178,36.39,0.253,0.207,9.868,0.894,98.1,2025-07-16T19:05:24.654949,73,3
calm,0,65.719,47.481,0.307,0.118,10.376,36.35,0.048,-0.188,9.802,0.498,96.6,2025-07-16T19:05:25.654949,74,3
calm,0,73.564,44.748,0.436,0.13,17.898,36.58,0.048,-0.153,9.83,0.131,96.0,2025-07-16T19:05:26.654949,75,3
calm,0,55.0,44.413,0.286,0.179,11.78,36.49,-0.029,-0.059,9.739,0.326,98.0,2025-07-16T19:05:27.654949,76,3
calm,0,59.018,39.329,0.327,0.059,13.161,36.67,0.078,0.079,9.834,0.43,97.5,2025-07-16T19:05:28.654949,77,3
calm,0,75.403,60.537,0.288,0.081,12.358,36.67,0.138,0.002,9.76,0.986,97.1,2025-07-16T19:05:29.654949,78,3
calm,0,76.414,32.451,0.249,0.004,13.833,36.53,-0.0,0.003,9.798,0.764,97.1,2025-07-16T19:05:30.654949,79,3
calm,0,63.953,33.838,0.446,0.091,15.177,36.47,0.043,-0.025,9.846,0.22,95.9,2025-07-16T19:05:31.654949,80,3
calm,0,65.738,39.955,0.396,0.075,14.434,36.47,0.084,0.021,9.769,0.253,96.6,2025-07-16T19:05:32.654949,81,3
calm,0,69.997,40.781,0.355,0.0,12.228,36.79,0.0,0.0,9.8,0.276,97.4,2025-07-16T19:05:33.654949,82,3
calm,0,75.07,49.686,0.29,0.163,15.77,36.5,0.038,-0.269,9.788,0.834,96.3,2025-07-16T19:05:34.654949,83,3
calm,0,72.873,43.22,0.199,0.184,10.443,36.62,-0.116,0.347,9.802,0.986,97.9,2025-07-16T19:05:35.654949,84,3
calm,0,70.89,58.641,0.32,0.08,15.951,36.61,-0.059,-0.057,9.869,0.599,97.5,2025-07-16T19:05:36.654949,85,3
calm,0,63.281,40.729,0.221,0.044,15.582,36.4,-0.059,0.029,9.856,0.768,97.4,2025-07-16T19:05:37.654949,86,3
calm,0,72.481,55.967,0.375,0.089,11.288,36.54,0.067,-0.176,9.824,0.226,96.6,2025-07-16T19:05:38.654949,87,3
calm,0,73.559,61.921,0.325,0.204,13.099,36.63,-0.035,-0.122,9.907,0.557,97.1,2025-07-16T19:05:39.654949,88,3
calm,0,59.514,46.064,0.358,0.001,14.086,36.38,-0.001,-0.002,9.8,0.231,97.7,2025-07-16T19:05:40.654949,89,3
calm,0,75.934,49.314,0.302,0.092,15.943,36.62,0.062,-0.05,9.828,0.814,96.7,2025-07-16T19:05:41.654949,90,3
calm,0,72.178,59.756,0.395,0.147,13.205,36.56,0.023,-0.389,9.778,0.751,97.0,2025-07-16T19:05:42.654949,91,3
calm,0,67.996,54.981,0.36,0.024,15.595,36.37,0.004,-0.092,9.81,0.921,96.9,2025-07-16T19:05:43.654949,92,3
calm,0,69.95,57.875,0.226,0.12,10.774,36.61,0.065,-0.229,9.892,0.163,97.7,2025-07-16T19:05:44.654949,93,3
calm,0,67.622,51.875,0.331,0.087,14.544,36.58,0.002,-0.007,9.803,0.834,97.0,2025-07-16T19:05:45.654949,94,3
calm,0,77.036,42.66,0.15,0.058,11.979,36.43,0.046,0.067,9.845,0.738,97.3,2025-07-16T19:05:46.654949,95,3
calm,0,76.343,48.946,0.253,0.199,17.208,36.51,-0.016,-0.064,9.808,0.533,96.8,2025-07-16T19:05:47.654949,96,3
calm,0,76.815,34.073,0.304,0.089,16.099,36.66,0.05,-0.009,9.84,0.971,96.8,2025-07-16T19:05:48.654949,97,3
calm,0,83.122,47.173,0.277,0.161,10.741,36.71,0.264,-0.019,9.86,0.598,96.8,2025-07-16T19:05:49.654949,98,3
calm,0,74.099,59.176,0.249,0.168,15.957,36.51,0.181,0.087,9.754,0.559,96.7,2025-07-16T19:05:50.654949,99,3
calm,0,72.936,39.241,0.404,0.165,14.223,36.51,-0.094,0.025,9.881,0.523,96.9,2025-07-16T19:05:51.654949,100,3
calm,0,60.799,42.167,0.425,0.109,12.759,36.27,0.003,0.018,9.818,0.379,97.5,2025-07-16T19:05:52.654949,101,3
calm,0,75.443,31.795,0.329,0.139,15.316,36.64,0.144,0.11,9.766,0.995,96.5,2025-07-16T19:05:53.654949,102,3
calm,0,78.207,46.679,0.263,0.132,11.615,36.62,0.138,-0.122,9.82,0.82,95.9,2025-07-16T19:05:54.654949,103,3
calm,0,70.786,47.428,0.176,0.202,11.716,36.68,0.02,0.087,9.776,0.414,97.8,2025-07-16T19:05:55.654949,104,3
calm,0,60.128,57.918,0.364,0.111,12.624,36.27,-0.057,-0.053,9.783,0.957,97.8,2025-07-16T19:05:56.654949,105,3
calm,0,73.562,46.037,0.292,0.108,14.18,36.62,0.206,0.112,9.757,0.572,97.0,2025-07-16T19:05:57.654949,106,3
calm,0,79.263,38.266,0.314,0.078,15.891,36.56,0.033,0.035,9.761,0.673,96.2,2025-07-16T19:05:58.654949,107,3
calm,0,69.4,30.476,0.333,0.071,11.062,36.52,0.128,0.014,9.796,0.501,96.7,2025-07-16T19:05:59.654949,108,3
calm,0,75.962,43.302,0.349,0.098,11.014,36.76,-0.142,0.066,9.825,0.373,96.9,2025-07-16T19:06:00.654949,109,3
calm,0,71.578,48.891,0.15,0.211,11.73,36.47,-0.133,-0.262,9.81,0.292,99.3,2025-07-16T19:06:01.654949,110,3
calm,0,72.781,30.0,0.219,0.188,11.314,36.58,0.051,0.248,9.779,0.901,97.5,2025-07-16T19:06:02.654949,111,3
calm,0,73.917,41.34,0.335,0.25,15.441,36.28,0.121,-0.629,9.786,0.298,97.8,2025-07-16T19:06:03.654949,112,3
calm,0,76.322,33.547,0.389,0.0,14.969,36.57,0.0,0.0,9.8,0.467,96.0,2025-07-16T19:06:04.654949,113,3
calm,0,66.37,55.204,0.273,0.086,16.049,36.35,-0.034,0.052,9.815,0.643,97.1,2025-07-16T19:06:05.654949,114,3
calm,0,69.283,49.535,0.28,0.102,10.458,36.68,0.026,-0.176,9.812,0.537,97.7,2025-07-16T19:06:06.654949,115,3
calm,0,73.879,37.948,0.239,0.127,17.972,36.64,-0.178,0.169,9.845,0.441,96.4,2025-07-16T19:06:07.654949,116,3
calm,0,55.0,39.241,0.4,0.098,14.487,36.63,0.136,0.112,9.779,0.81,96.8,2025-07-16T19:06:08.654949,117,3
calm,0,68.437,33.125,0.262,0.009,15.251,36.4,0.0,0.004,9.798,0.185,97.0,2025-07-16T19:06:09.654949,118,3
calm,0,67.259,38.531,0.163,0.12,17.86,36.52,-0.053,0.16,9.773,0.174,98.0,2025-07-16T19:06:10.654949,119,3
calm,0,75.494,54.556,0.347,0.125,13.575,36.7,0.286,0.092,9.745,0.954,96.9,2025-07-16T19:06:11.654949,120,3
calm,0,70.914,48.321,0.375,0.072,13.528,36.64,-0.049,-0.016,9.764,0.97,96.8,2025-07-16T19:06:12.654949,121,3
calm,0,70.635,44.478,0.231,0.096,16.187,36.58,0.072,-0.025,9.802,0.475,98.1,2025-07-16T19:06:13.654949,122,3
calm,0,63.157,46.023,0.282,0.0,10.39,36.33,0.0,0.0,9.8,0.455,98.0,2025-07-16T19:06:14.654949,123,3
calm,0,67.313,34.852,0.377,0.088,10.178,36.43,0.053,0.176,9.812,0.353,96.5,2025-07-16T19:06:15.654949,124,3
calm,0,68.491,41.083,0.262,0.056,11.131,36.47,-0.091,-0.054,9.811,0.446,97.2,2025-07-16T19:06:16.654949,125,3
calm,0,78.51,42.692,0.456,0.067,11.894,36.75,-0.032,0.046,9.764,0.462,96.5,2025-07-16T19:06:17.654949,126,3
calm,0,77.473,43.512,0.322,0.107,13.291,36.7,0.047,-0.08,9.791,0.663,97.2,2025-07-16T19:06:18.654949,127,3
calm,0,57.748,54.344,0.249,0.02,14.708,36.65,0.01,-0.002,9.786,0.317,98.3,2025-07-16T19:06:19.654949,128,3
calm,0,59.967,31.839,0.262,0.081,15.379,36.44,0.045,-0.082,9.743,0.674,97.1,2025-07-16T19:06:20.654949,129,3
calm,0,63.055,50.393,0.369,0.033,13.219,36.32,0.046,-0.004,9.817,0.314,97.6,2025-07-16T19:06:21.654949,130,3
calm,0,71.428,50.043,0.241,0.12,15.706,36.47,-0.012,-0.254,9.844,0.836,96.8,2025-07-16T19:06:22.654949,131,3
calm,0,71.319,43.567,0.368,0.073,13.349,36.79,0.06,0.08,9.778,0.519,96.8,2025-07-16T19:06:23.654949,132,3
calm,0,68.294,47.413,0.409,0.184,10.564,36.75,-0.271,0.162,9.887,0.355,97.7,2025-07-16T19:06:24.654949,133,3
calm,0,85.0,61.692,0.318,0.073,13.497,36.77,0.063,-0.039,9.816,0.651,96.4,2025-07-16T19:06:25.654949,134,3
calm,0,79.794,38.409,0.15,0.149,12.498,36.72,-0.134,-0.125,9.804,0.495,96.0,2025-07-16T19:06:26.654949,135,3
calm,0,68.651,33.503,0.27,0.077,13.995,36.43,0.122,-0.167,9.781,0.804,97.1,2025-07-16T19:06:27.654949,136,3
calm,0,72.852,48.541,0.293,0.035,14.296,36.6,-0.026,0.038,9.816,0.577,97.1,2025-07-16T19:06:28.654949,137,3
calm,0,74.732,49.969,0.39,0.131,14.078,36.58,0.197,0.227,9.894,0.229,96.8,2025-07-16T19:06:29.654949,138,3
calm,0,58.148,56.526,0.302,0.085,16.458,36.39,0.032,0.083,9.84,0.649,97.2,2025-07-16T19:06:30.654949,139,3
calm,0,67.641,52.305,0.366,0.068,13.942,36.51,-0.016,-0.056,9.817,0.83,97.6,2025-07-16T19:06:31.654949,140,3
calm,0,66.346,57.232,0.48,0.132,15.515,36.48,0.074,-0.058,9.785,0.373,96.8,2025-07-16T19:06:32.654949,141,3
calm,0,56.154,35.374,0.305,0.1,14.378,36.43,-0.157,0.034,9.837,0.698,97.9,2025-07-16T19:06:33.654949,142,3
calm,0,55.759,55.036,0.27,0.173,16.614,36.51,-0.07,-0.127,9.768,0.234,97.4,2025-07-16T19:06:34.654949,143,3
calm,0,80.513,30.0,0.156,0.114,16.754,36.61,0.069,0.149,9.746,0.216,96.6,2025-07-16T19:06:35.654949,144,3
calm,0,63.399,45.126,0.337,0.092,15.194,36.48,0.109,-0.158,9.761,0.794,96.9,2025-07-16T19:06:36.654949,145,3
calm,0,79.649,41.201,0.377,0.128,13.059,36.73,-0.195,0.059,9.752,0.386,96.2,2025-07-16T19:06:37.654949,146,3
calm,0,82.091,35.307,0.341,0.218,14.452,36.68,-0.121,0.119,9.763,0.628,96.0,2025-07-16T19:06:38.654949,147,3
calm,0,64.301,46.678,0.239,0.099,12.464,36.4,0.056,0.16,9.771,0.739,97.6,2025-07-16T19:06:39.654949,148,3
calm,0,79.454,30.773,0.338,0.128,11.063,36.72,0.015,-0.127,9.762,0.849,97.4,2025-07-16T19:06:40.654949,149,3
calm,0,79.087,44.573,0.346,0.056,13.589,36.59,-0.004,0.08,9.726,0.942,96.3,2025-07-16T19:06:41.654949,150,3
calm,0,57.24,44.893,0.15,0.101,15.942,36.51,-0.122,-0.125,9.716,0.197,98.3,2025-07-16T19:06:42.654949,151,3
calm,0,68.62,59.938,0.197,0.161,12.786,36.71,0.02,-0.11,9.847,0.883,97.2,2025-07-16T19:06:43.654949,152,3
calm,0,72.362,50.333,0.256,0.103,13.938,36.5,-0.153,-0.075,9.759,0.408,97.4,2025-07-16T19:06:44.654949,153,3
calm,0,76.97,41.882,0.259,0.071,12.881,36.52,0.01,0.007,9.838,0.899,97.7,2025-07-16T19:06:45.654949,154,3
calm,0,60.907,40.279,0.298,0.139,11.584,36.44,-0.114,0.024,9.656,0.637,97.2,2025-07-16T19:06:46.654949,155,3
calm,0,70.053,43.605,0.415,0.138,13.772,36.75,-0.151,0.019,9.884,0.861,97.5,2025-07-16T19:06:47.654949,156,3
calm,0,64.258,30.0,0.408,0.121,12.741,36.71,-0.067,-0.178,9.802,0.601,96.9,2025-07-16T19:06:48.654949,157,3
calm,0,60.342,33.199,0.231,0.122,12.157,36.39,-0.135,-0.018,9.897,0.833,97.2,2025-07-16T19:06:49.654949,158,3
calm,0,60.714,30.0,0.205,0.069,13.584,36.41,0.007,0.065,9.837,0.173,97.5,2025-07-16T19:06:50.654949,159,3
calm,0,78.622,45.032,0.281,0.095,13.448,36.71,0.04,-0.242,9.764,0.52,96.5,2025-07-16T19:06:51.654949,160,3
calm,0,64.336,44.7,0.262,0.117,11.4,36.42,-0.11,-0.153,9.818,0.408,97.1,2025-07-16T19:06:52.654949,161,3
calm,0,73.202,35.854,0.326,0.113,15.008,36.45,0.057,-0.028,9.828,0.58,96.5,2025-07-16T19:06:53.654949,162,3
calm,0,82.985,30.0,0.418,0.076,17.076,36.76,0.039,0.052,9.793,0.388,96.8,2025-07-16T19:06:54.654949,163,3
calm,0,71.411,53.521,0.432,0.109,16.462,36.82,0.05,0.008,9.825,0.97,97.6,2025-07-16T19:06:55.654949,164,3
calm,0,55.0,41.677,0.294,0.155,11.995,36.52,-0.164,-0.3,9.823,0.549,97.9,2025-07-16T19:06:56.654949,165,3
calm,0,69.64,62.237,0.35,0.143,14.525,36.63,0.392,-0.12,9.77,0.618,97.2,2025-07-16T19:06:57.654949,166,3
calm,0,65.37,44.392,0.338,0.134,16.606,36.47,0.248,0.041,9.755,0.509,98.4,2025-07-16T19:06:58.654949,167,3
calm,0,77.439,35.779,0.287,0.048,13.073,36.64,0.092,-0.047,9.806,1.0,97.1,2025-07-16T19:06:59.654949,168,3
calm,0,75.033,35.978,0.324,0.023,16.342,36.71,0.008,0.003,9.827,0.213,96.3,2025-07-16T19:07:00.654949,169,3
calm,0,74.334,44.733,0.47,0.148,13.165,36.68,-0.295,-0.16,9.729,0.434,96.8,2025-07-16T19:07:01.654949,170,3
calm,0,66.171,46.417,0.403,0.0,12.448,36.46,0.0,0.0,9.8,0.357,98.0,2025-07-16T19:07:02.654949,171,3
calm,0,76.17,49.813,0.306,0.123,14.783,36.65,0.127,0.054,9.785,0.764,97.0,2025-07-16T19:07:03.654949,172,3
calm,0,84.222,43.683,0.316,0.096,13.056,36.75,0.003,-0.097,9.783,0.555,96.1,2025-07-16T19:07:04.654949,173,3
calm,0,78.136,51.012,0.362,0.155,12.495,36.76,0.024,0.252,9.646,0.784,96.4,2025-07-16T19:07:05.654949,174,3
calm,0,56.248,65.0,0.334,0.08,12.617,36.46,-0.012,0.126,9.788,0.446,97.5,2025-07-16T19:07:06.654949,175,3
calm,0,57.477,32.921,0.369,0.082,11.958,36.49,-0.011,0.016,9.808,0.237,97.4,2025-07-16T19:07:07.654949,176,3
calm,0,76.253,44.193,0.249,0.135,18.0,36.89,0.051,0.103,9.751,0.791,96.6,2025-07-16T19:07:08.654949,177,3
calm,0,61.202,45.121,0.391,0.183,12.964,36.37,0.073,0.242,9.763,0.618,96.5,2025-07-16T19:07:09.654949,178,3
calm,0,57.038,47.528,0.31,0.096,11.623,36.4,0.137,-0.036,9.797,0.288,97.8,2025-07-16T19:07:10.654949,179,3
focused,1,73.732,45.592,0.373,0.07,12.892,36.617,-0.054,0.016,9.768,0.373,95.6,2025-07-16T19:07:11.654949,180,3
focused,1,72.683,50.471,0.328,0.078,15.397,36.54,0.113,0.026,9.849,0.473,96.7,2025-07-16T19:07:12.654949,181,3
focused,1,82.067,57.682,0.405,0.033,13.412,36.58,-0.021,0.044,9.819,0.195,95.8,2025-07-16T19:07:13.654949,182,3
focused,1,78.078,54.442,0.333,0.061,13.562,36.57,0.086,0.046,9.835,0.845,96.7,2025-07-16T19:07:14.654949,183,3
focused,1,75.453,52.829,0.462,0.043,14.274,36.66,-0.021,-0.018,9.817,0.425,96.6,2025-07-16T19:07:15.654949,184,3
focused,1,75.702,50.518,0.477,0.037,14.043,36.55,0.039,-0.005,9.775,0.278,96.5,2025-07-16T19:07:16.654949,185,3
focused,1,76.651,54.749,0.38,0.079,14.998,36.55,0.067,-0.022,9.797,0.319,96.8,2025-07-16T19:07:17.654949,186,3
focused,1,70.026,63.346,0.428,0.02,17.314,36.56,0.003,0.009,9.812,0.454,96.3,2025-07-16T19:07:18.654949,187,3
focused,1,81.529,54.153,0.507,0.045,16.117,36.61,0.02,0.081,9.78,0.794,96.0,2025-07-16T19:07:19.654949,188,3
focused,1,75.478,41.122,0.409,0.031,15.056,36.37,-0.026,0.002,9.844,0.513,97.9,2025-07-16T19:07:20.654949,189,3
focused,1,77.197,58.543,0.362,0.033,14.427,36.62,0.023,-0.004,9.788,0.632,96.5,2025-07-16T19:07:21.654949,190,3
focused,1,78.292,56.537,0.301,0.061,16.163,36.6,0.01,-0.078,9.767,0.451,96.6,2025-07-16T19:07:22.654949,191,3
focused,1,75.891,40.799,0.38,0.043,14.534,36.33,-0.028,0.059,9.806,0.629,96.7,2025-07-16T19:07:23.654949,192,3
focused,1,81.775,55.368,0.341,0.055,15.148,36.66,0.004,-0.05,9.794,0.736,96.9,2025-07-16T19:07:24.654949,193,3
focused,1,69.583,36.783,0.396,0.046,15.487,36.68,-0.006,-0.056,9.791,0.583,96.6,2025-07-16T19:07:25.654949,194,3
focused,1,71.013,42.431,0.372,0.054,16.326,36.34,0.02,0.037,9.832,0.656,97.1,2025-07-16T19:07:26.654949,195,3
focused,1,79.018,58.387,0.444,0.043,12.594,36.68,0.08,-0.011,9.807,0.443,95.0,2025-07-16T19:07:27.654949,196,3
focused,1,68.451,40.645,0.409,0.056,13.81,36.38,-0.083,0.07,9.853,0.505,96.8,2025-07-16T19:07:28.654949,197,3
focused,1,71.764,38.742,0.528,0.062,13.548,36.65,-0.013,-0.032,9.752,0.253,95.7,2025-07-16T19:07:29.654949,198,3
focused,1,70.474,54.575,0.438,0.025,16.926,36.6,0.007,0.023,9.799,0.751,96.9,2025-07-16T19:07:30.654949,199,3
focused,1,70.809,58.902,0.457,0.03,13.335,36.45,0.006,0.034,9.801,0.406,97.1,2025-07-16T19:07:31.654949,200,3
focused,1,82.969,63.133,0.4,0.039,17.071,36.72,0.018,-0.066,9.783,0.599,95.9,2025-07-16T19:07:32.654949,201,3
focused,1,71.327,50.694,0.508,0.064,14.087,36.63,0.032,0.043,9.814,0.265,96.2,2025-07-16T19:07:33.654949,202,3
focused,1,65.709,61.207,0.476,0.045,13.981,36.57,0.022,-0.002,9.782,0.864,97.6,2025-07-16T19:07:34.654949,203,3
focused,1,70.851,38.661,0.395,0.046,16.19,36.43,-0.124,-0.051,9.819,0.909,97.4,2025-07-16T19:07:35.654949,204,3
focused,1,71.648,40.682,0.461,0.078,14.639,36.74,0.147,-0.065,9.686,0.697,96.7,2025-07-16T19:07:36.654949,205,3
focused,1,75.982,52.673,0.405,0.078,14.756,36.61,0.069,0.118,9.782,0.11,96.5,2025-07-16T19:07:37.654949,206,3
focused,1,81.197,54.317,0.343,0.051,13.399,36.61,-0.027,0.015,9.756,0.233,96.3,2025-07-16T19:07:38.654949,207,3
